"Data file recorded 2014/2/3  17:54:20"
"%  Right Stride Frequency         = 5.0"
"%  Left Stride Frequency         = 5.0"
"%  Phase (Fractional)         = 16384.0"
"%  Experiment.py "
"%  Motor Gains    = [1800, 20, 100, 0, 0, 1800, 20, 100, 0, 0]
"% Columns: "
"% time | Right Leg Pos | Left Leg Pos | Commanded Right Leg Pos | Commanded Left Leg Pos | DCR | DCL | GyroX | GryoY | GryoZ | AX | AY | AZ | RBEMF | LBEMF | VBatt "
10957,2980428,3080372,2982215,3064135,1097,-3800,421,-1116,-554,216,12,4262,-8,6,879
11959,2980432,3080368,2982542,3064462,1239,-3800,417,-1113,-554,215,33,4261,-8,6,879
12959,2980480,3080316,2982869,3064789,1086,-3800,416,-1112,-554,230,45,4242,4,-3,880
13961,2980556,3080076,2983196,3065116,1022,-3800,413,-1103,-553,217,69,4147,4,-3,880
14949,2980640,3079692,2983523,3065443,1078,-3527,407,-1117,-559,160,187,3573,5,-46,840
15950,2980744,3079244,2983850,3065770,1051,-2787,394,-1248,-582,-1240,217,1920,5,-46,840
16951,2980848,3078720,2984177,3066097,1149,-1938,376,-1402,-572,-2130,-40,2504,-8,-66,842
17952,2980972,3078188,2984504,3066424,1114,-1510,405,-1625,-612,-1552,800,2245,-8,-66,842
18953,2981100,3077628,2984831,3066751,1176,-946,451,-1916,-690,-1621,891,1827,11,-71,855
19954,2981244,3077104,2985158,3067078,1157,-797,457,-2014,-725,-875,578,3319,11,-71,855
20955,2981388,3076616,2985485,3067405,1237,-664,425,-1926,-701,709,604,3695,16,-55,865
21956,2981548,3076188,2985812,3067732,1210,-708,359,-1629,-749,2608,1447,5219,16,-55,865
22957,2981716,3075840,2986139,3068059,1230,-911,329,-1196,-864,4157,1478,5807,21,-60,869
23958,2981904,3075488,2986466,3068386,1166,-588,248,-730,-932,3904,914,5901,21,-60,869
24959,2982104,3075224,2986793,3068713,1147,-879,173,-293,-954,3530,1199,6288,15,-36,869
25960,2982300,3074984,2987120,3069040,1230,-780,148,-46,-981,2165,705,4751,15,-36,869
26961,2982492,3074792,2987447,3069367,1315,-852,106,166,-936,301,-965,6192,12,-29,870
27962,2982676,3074596,2987774,3069694,1428,-597,109,175,-898,-880,-142,4228,12,-29,870
28963,2982864,3074440,2988101,3070021,1464,-634,193,135,-745,-3079,-2589,4684,24,-15,868
29964,2983064,3074272,2988428,3070348,1445,-342,293,156,-622,-3170,-2656,6224,24,-15,868
30965,2983244,3074164,2988755,3070675,1634,-526,338,145,-512,-1510,-1939,5028,16,-25,868
31966,2983456,3074052,2989082,3071002,1485,-308,276,269,-387,597,-1656,6668,16,-25,868
32967,2983680,3074004,2989409,3071329,1455,-543,203,366,-296,1689,-885,5966,28,-15,869
33968,2983900,3073996,2989736,3071656,1527,-646,174,438,-228,612,-1059,6655,28,-15,869
34969,2984080,3074024,2990063,3071983,1842,-740,251,388,-176,-802,-1434,6339,25,8,868
35970,2984268,3074076,2990390,3072310,1854,-770,380,140,-191,-2234,-1417,5627,25,8,868
36971,2984492,3074160,2990717,3072637,1674,-863,486,-212,-231,-2990,-1091,4852,27,0,865
37972,2984696,3074232,2991044,3072964,1853,-676,558,-578,-235,-2975,-822,4534,27,0,865
38973,2984872,3074284,2991371,3073291,2095,-430,576,-901,-181,-1862,-837,4283,30,2,863
39974,2985060,3074348,2991698,3073618,2081,-389,546,-1181,-105,-1376,-691,4215,30,2,863
40975,2985260,3074400,2992025,3073945,2061,-193,526,-1490,-12,-1826,-825,4002,30,0,864
41976,2985456,3074464,2992352,3074272,2144,-153,540,-1810,41,-2493,-888,3733,30,0,864
42977,2985644,3074572,2992679,3074599,2255,-332,605,-2175,27,-2700,-955,3394,28,9,863
43978,2985840,3074696,2993006,3074926,2264,-342,699,-2590,25,-2532,-906,2944,28,9,863
44979,2986016,3074824,2993333,3075253,2455,-280,780,-2943,73,-2177,-420,3263,19,6,863
45980,2986228,3074984,2993660,3075580,2281,-407,839,-3182,134,-1538,186,3352,19,6,863
46981,2986436,3075124,2993987,3075907,2358,-199,879,-3351,174,-771,510,3794,25,19,861
47982,2986636,3075284,2994314,3076234,2464,-251,926,-3469,194,-165,434,3960,25,19,861
48983,2986832,3075456,2994641,3076561,2546,-258,977,-3566,167,119,532,3966,18,19,860
49984,2987076,3075648,2994968,3076888,2283,-324,1040,-3645,116,-67,676,4336,18,19,860
50985,2987296,3075828,2995295,3077215,2481,-184,1106,-3733,71,43,715,4381,35,29,860
51986,2987544,3076024,2995622,3077542,2340,-226,1145,-3796,3,423,824,4578,35,29,860
52987,2987776,3076220,2995949,3077869,2482,-169,1196,-3835,-18,329,310,5105,34,26,861
53988,2988052,3076380,2996276,3078196,2230,130,1309,-3923,-34,437,226,4578,34,26,861
54989,2988336,3076592,2996603,3078523,2198,-144,1441,-3981,-193,564,1326,5325,28,17,862
55989,2988628,3076780,2996930,3078850,2164,67,1531,-3951,-373,1008,1240,5860,28,17,862
56991,2988916,3076956,2997257,3079177,2206,209,1592,-3887,-441,1701,956,5501,39,23,863
57992,2989180,3077132,2997584,3079504,2385,275,1607,-3738,-431,2354,1301,6254,39,23,863
58993,2989504,3077268,2997911,3079831,2011,609,1601,-3560,-442,1929,1441,6180,33,17,864
60001,2989844,3077408,2998272,3080192,3626,2387,1523,-3441,-465,975,1343,5316,33,17,864
60995,2990268,3077568,2998599,3080519,3059,2335,1408,-3479,-465,398,1466,4490,38,17,861
61996,2990576,3077784,2998926,3080846,3792,2034,1293,-3529,-472,433,1629,4360,38,17,861
62997,2990912,3078144,2999253,3081173,3613,1120,1227,-3608,-436,209,1584,4062,44,34,834
63998,2991284,3078520,2999580,3081500,3369,998,1149,-3694,-418,222,1638,3966,44,34,834
64999,2991760,3078888,2999907,3081827,2654,1030,1056,-3718,-435,725,1457,4253,60,56,836
66000,2992208,3079224,3000234,3082154,2776,1226,983,-3712,-516,1229,1045,3863,60,56,836
67001,2992568,3079588,3000561,3082481,3311,1035,842,-3559,-564,1078,772,5135,50,49,848
68002,2992996,3079968,3000888,3082808,2842,912,516,-3480,-557,1043,2419,4399,50,49,848
69003,2993444,3080328,3001215,3083135,2663,1022,221,-3220,-528,2167,3162,5761,52,40,852
70004,2993856,3080648,3001542,3083462,2851,1275,85,-2789,-511,1794,1822,7055,52,40,852
71005,2994260,3080948,3001869,3083789,2868,1412,-43,-2642,-512,153,1354,4901,61,48,854
72005,2994708,3081224,3002196,3084116,2540,1584,-119,-2763,-496,-173,1967,5476,61,48,854
73007,2995160,3081516,3002523,3084443,2460,1500,-71,-2823,-498,-545,972,6166,60,30,851
74008,2995584,3081780,3002850,3084770,2593,1703,45,-2947,-434,-1685,-181,4900,60,30,851
75009,2995944,3082012,3003177,3085097,2978,1945,409,-3225,-359,-2240,-672,5997,48,36,851
76010,2996296,3082224,3003504,3085424,3017,2121,717,-3390,-365,-1919,-1307,5237,48,36,851
77011,2996680,3082420,3003831,3085751,2792,2278,940,-3607,-303,-1417,-1027,5424,44,38,850
78012,2997040,3082536,3004158,3086078,2929,2871,1061,-3374,-168,1085,-1154,6134,44,38,850
79013,2997444,3082712,3004485,3086405,2620,2562,1043,-2712,11,4195,-618,6319,41,22,843
80014,2997812,3082908,3004812,3086732,2827,2495,1000,-1726,42,6058,-325,6273,41,22,843
81015,2998236,3083156,3005139,3087059,2434,2205,883,-795,-106,6849,136,4530,63,27,837
82016,2998728,3083396,3005466,3087386,1937,2293,665,133,-332,7244,844,4535,63,27,837
83017,2999248,3083664,3005793,3087713,1677,2144,415,1117,-358,6593,1088,4571,54,30,842
84017,2999808,3083892,3006120,3088040,1324,2437,129,2097,-344,5518,1527,4480,54,30,842
85018,3000348,3084108,3006447,3088367,1357,2561,-150,2828,-389,4932,2654,3526,68,39,851
86019,3000872,3084344,3006774,3088694,1370,2476,-363,3275,-505,4070,2347,3017,68,39,851
87020,3001392,3084600,3007101,3089021,1310,2382,-584,3503,-623,2153,1727,3144,60,26,854
88021,3001920,3084872,3007428,3089348,1172,2307,-783,3743,-648,948,2154,4195,60,26,854
89022,3002432,3085132,3007755,3089675,1191,2412,-950,4068,-667,1275,1945,5082,66,40,854
90024,3002952,3085384,3008082,3090002,1056,2495,-1075,4415,-768,2170,1735,4290,66,40,854
91024,3003400,3085684,3008409,3090329,1453,2207,-1102,4806,-887,2608,1383,4538,71,32,856
92025,3003944,3085992,3008736,3090656,757,2165,-1048,5145,-1037,2552,457,4676,71,32,856
93026,3004532,3086308,3009063,3090983,368,2120,-984,5381,-1134,2426,1178,3053,65,42,856
94028,3005096,3086640,3009390,3091310,414,2018,-974,5559,-1184,1870,1303,3676,65,42,856
95029,3005680,3086952,3009717,3091637,177,2149,-1036,5830,-1202,1443,786,4038,81,36,860
96030,3006268,3087280,3010044,3091964,37,2049,-1112,6171,-1272,2185,1596,3101,81,36,860
97031,3006868,3087600,3010371,3092291,-158,2102,-1147,6418,-1457,2638,1483,3502,67,44,864
98032,3007432,3087932,3010698,3092618,-37,2025,-1207,6639,-1672,2044,1377,3669,67,44,864
99033,3007956,3088280,3011025,3092945,126,1916,-1352,6864,-1838,1931,2486,3192,63,49,865
100034,3008484,3088624,3011352,3093272,13,1934,-1512,6982,-1911,1044,2946,2744,63,49,865
101035,3008952,3088992,3011679,3093599,326,1766,-1607,6966,-1884,-810,2171,2895,74,52,865
102036,3009452,3089284,3012006,3093926,50,2256,-1594,6835,-1856,-1483,1311,2491,74,52,865
103037,3010004,3089624,3012333,3094253,-374,1951,-1597,6593,-1978,-1119,2218,2013,76,44,866
104038,3010632,3089964,3012660,3094580,-981,1945,-1697,6351,-2126,-1008,3103,1420,76,44,866
105039,3011092,3090288,3012987,3094907,10,2046,-1803,6231,-2169,-814,2541,3023,58,49,864
106040,3011584,3090612,3013314,3095234,-262,2048,-1881,6211,-2134,-783,1943,3575,58,49,864
107041,3012048,3090964,3013641,3095561,-147,1862,-1998,6159,-2141,-133,2873,1995,52,37,860
108042,3012528,3091292,3013968,3095888,-315,2011,-2130,6129,-2220,1360,3248,2100,52,37,860
109043,3013040,3091624,3014295,3096215,-596,1984,-2252,6195,-2277,1508,2691,2548,50,47,864
110051,3013456,3092000,3014656,3096576,-20,1702,-2283,6247,-2240,813,1651,2049,50,47,864
111044,3013852,3092392,3014983,3096903,75,1575,-2175,6387,-2246,970,865,2133,61,35,863
112046,3014304,3092780,3015310,3097230,-330,1573,-1940,6459,-2326,920,-803,1048,61,35,863
113047,3014732,3093184,3015637,3097557,-225,1439,-1517,6182,-2306,317,-2461,966,58,43,868
114048,3015128,3093604,3015964,3097884,-55,1298,-895,5768,-2157,-3519,-3080,2286,58,43,868
115049,3015452,3093996,3016291,3098211,396,1445,-153,5172,-2041,-3987,-4888,2164,46,47,868
116050,3015656,3094452,3016618,3098538,1200,988,793,4636,-1896,-4081,-7556,4558,46,47,868
117050,3016024,3094880,3016945,3098865,157,1119,1695,4013,-1630,-5370,-6660,4504,52,56,871
118052,3016424,3095288,3017272,3099192,-75,1208,2344,3271,-1472,-7118,-3805,4818,52,56,871
119053,3016792,3095676,3017599,3099519,107,1306,2800,2213,-1418,-8139,-2099,6136,56,50,867
120053,3017060,3096040,3017926,3099846,758,1440,3026,968,-1425,-10745,-686,7639,56,50,867
121055,3017332,3096424,3018253,3100173,757,1290,3077,-222,-1555,-10218,794,6794,47,48,872
122056,3017564,3096836,3018580,3100500,1049,1078,3093,-1368,-1890,-6285,1795,5517,47,48,872
123057,3017764,3097224,3018907,3100827,1305,1201,3181,-2331,-2255,-6077,986,5166,24,53,867
124058,3017980,3097608,3019234,3101154,1254,1202,3284,-3341,-2448,-6845,-199,3400,24,53,867
125058,3018164,3098036,3019561,3101481,1517,882,3438,-4353,-2460,-6906,-1456,2378,30,53,866
126060,3018376,3098452,3019888,3101808,1393,918,3695,-5413,-2308,-7859,-2987,782,30,53,866
127061,3018576,3098904,3020215,3102135,1524,638,4006,-6423,-2104,-7938,-3736,-32,26,45,865
128061,3018784,3099308,3020542,3102462,1526,905,4194,-7320,-1950,-7048,-2973,-1121,26,45,865
129062,3019020,3099692,3020869,3102789,1391,1004,4123,-7933,-1968,-4751,768,-615,24,43,866
130063,3019256,3100084,3021196,3103116,1431,926,3826,-8225,-2103,-1595,3523,1560,24,43,866
131065,3019504,3100432,3021523,3103443,1391,1192,3383,-8101,-2357,863,4489,4290,37,36,865
132065,3019740,3100760,3021850,3103770,1506,1316,2883,-7660,-2581,3203,5028,5952,37,36,865
133066,3019992,3101076,3022177,3104097,1439,1396,2445,-6799,-2709,5480,5997,7439,29,44,865
134067,3020240,3101384,3022504,3104424,1498,1454,2073,-5794,-2808,6353,5347,7370,29,44,865
135069,3020524,3101692,3022831,3104751,1292,1463,1737,-4999,-2939,6624,4356,5770,29,40,863
136069,3020824,3102000,3023158,3105078,1204,1471,1416,-4438,-3058,5166,4399,5297,29,40,863
137071,3021080,3102308,3023485,3105405,1510,1479,1091,-4042,-3070,3731,4637,4013,29,46,861
138072,3021368,3102648,3023812,3105732,1328,1274,768,-3697,-3001,2706,4970,3569,29,46,861
139072,3021648,3102988,3024139,3106059,1398,1268,514,-3434,-2922,1599,4466,3787,43,30,864
140073,3021908,3103248,3024466,3106386,1553,1798,369,-3274,-2877,571,3162,4206,43,30,864
141074,3022180,3103564,3024793,3106713,1502,1453,315,-3320,-2846,290,2218,4327,38,45,864
142075,3022428,3103908,3025120,3107040,1687,1271,261,-3386,-2821,171,1160,5062,38,45,864
143077,3022704,3104288,3025447,3107367,1534,1023,133,-3416,-2817,480,1709,4911,30,35,859
144077,3022916,3104672,3025774,3107694,1984,973,-93,-3621,-2784,402,2911,3168,30,35,859
145079,3023204,3105100,3026101,3108021,1527,653,-317,-3764,-2616,-1487,3060,3034,42,53,861
146080,3023404,3105496,3026428,3108348,2132,823,-472,-4063,-2413,-3534,1933,2304,42,53,861
147081,3023700,3105944,3026755,3108675,1546,445,-377,-4552,-2264,-5337,-118,1543,42,48,860
148081,3023976,3106368,3027082,3109002,1694,552,-33,-5220,-2163,-5951,-1434,1044,42,48,860
149083,3024268,3106780,3027409,3109329,1610,590,498,-5797,-2126,-4424,-2511,2559,31,50,860
150083,3024540,3107180,3027736,3109656,1759,633,1013,-6092,-2013,-3155,-3370,3208,31,50,860
151084,3024804,3107620,3028063,3109983,1837,333,1355,-6131,-1840,-881,-1838,3318,44,54,865
152085,3025112,3107992,3028390,3110310,1570,738,1434,-6101,-1696,245,-19,2931,44,54,865
153086,3025404,3108412,3028717,3110637,1685,397,1330,-6050,-1602,651,1267,2679,36,48,865
154087,3025712,3108816,3029044,3110964,1594,463,1150,-6194,-1563,-790,2521,1925,36,48,865
155088,3026016,3109240,3029371,3111291,1629,296,1022,-6401,-1514,-1920,1443,1800,32,42,866
156089,3026328,3109640,3029698,3111618,1585,414,992,-6709,-1495,-1946,-206,1078,32,42,866
157090,3026632,3110008,3030025,3111945,1646,596,1015,-6961,-1456,-1711,-628,1784,43,57,866
158091,3026928,3110440,3030352,3112272,1709,150,1070,-7032,-1360,-1123,-51,1936,43,57,866
159093,3027260,3110848,3030679,3112599,1482,264,1064,-7003,-1237,28,234,1758,44,50,867
160101,3027580,3111228,3031040,3112960,1575,431,971,-7083,-1130,21,1200,665,44,50,867
161095,3027876,3111592,3031367,3113287,1739,514,823,-7208,-1035,-349,1945,1011,39,40,867
162096,3028224,3112020,3031694,3113614,1404,71,711,-7380,-921,-1423,2138,823,39,40,867
163097,3028572,3112440,3032021,3113941,1395,80,642,-7619,-809,-2278,1410,432,31,40,867
164098,3028876,3112800,3032348,3114268,1681,441,659,-7787,-790,-1320,284,843,31,40,867
165099,3029204,3113136,3032675,3114595,1531,587,753,-7787,-808,638,-140,1071,48,44,870
166100,3029568,3113528,3033002,3114922,1290,208,832,-7272,-841,2914,-952,4185,48,44,870
167101,3029936,3113876,3033329,3115249,1247,474,921,-6393,-796,3143,-1853,5483,39,51,867
168102,3030328,3114208,3033656,3115576,1068,572,1042,-5676,-674,3167,-1687,3373,39,51,867
169103,3030712,3114560,3033983,3115903,1093,436,1132,-5116,-622,5234,-987,4811,43,39,869
170104,3031156,3114904,3034310,3116230,667,478,1193,-4718,-654,3601,-328,4661,43,39,869
171105,3031516,3115200,3034637,3116557,1177,792,1241,-4516,-551,1719,-815,3876,53,44,871
172106,3031904,3115508,3034964,3116884,975,725,1300,-4261,-405,2323,-1135,5022,53,44,871
173106,3032284,3115800,3035291,3117211,1002,841,1379,-4139,-358,2863,-709,3718,49,42,873
174108,3032652,3116044,3035618,3117538,1059,1177,1450,-3936,-364,3755,-1436,3637,49,42,873
175108,3033068,3116268,3035945,3117865,720,1347,1416,-3232,-321,6101,-871,5554,41,32,870
176110,3033452,3116488,3036272,3118192,895,1419,1391,-2282,-255,8369,-166,5442,41,32,870
177111,3033864,3116692,3036599,3118519,682,1573,1403,-1056,-163,8072,-923,6733,44,36,867
178112,3034288,3116884,3036926,3118846,565,1708,1455,19,-103,7703,-1468,6407,44,36,867
179113,3034692,3117112,3037253,3119173,656,1526,1524,733,-123,5852,-1321,5780,44,35,866
180114,3035112,3117344,3037580,3119500,515,1543,1530,1296,-115,3751,-819,5915,44,35,866
181115,3035512,3117540,3037907,3119827,609,1826,1522,1778,-42,3935,-236,6129,56,21,865
182116,3035916,3117764,3038234,3120154,550,1696,1408,2188,78,3658,57,5611,56,21,865
183116,3036316,3117952,3038561,3120481,543,1982,1210,2565,182,3771,208,5822,46,20,867
184117,3036736,3118188,3038888,3120808,377,1722,1000,2842,280,3927,773,4675,46,20,867
185119,3037144,3118416,3039215,3121135,417,1815,778,3082,342,3912,1298,4352,48,33,865
186120,3037556,3118652,3039542,3121462,354,1805,529,3397,445,3114,955,3783,48,33,865
187121,3037944,3118884,3039869,3121789,477,1872,383,3747,600,2507,573,4604,52,38,866
188122,3038348,3119168,3040196,3122116,344,1566,301,3970,824,666,679,4457,52,38,866
189122,3038772,3119452,3040523,3122443,176,1585,219,4051,891,-462,1362,3812,55,30,865
190124,3039216,3119696,3040850,3122770,0,1872,143,3835,934,-2448,588,4712,55,30,865
191124,3039636,3119992,3041177,3123097,109,1561,80,3517,1058,-3460,164,4211,46,31,865
192126,3040012,3120296,3041504,3123424,362,1521,18,3325,1095,-1571,450,4954,46,31,865
193127,3040384,3120608,3041831,3123751,367,1478,-75,3150,1114,38,497,5141,51,46,867
194128,3040804,3120924,3042158,3124078,27,1458,-195,3165,1163,194,1042,4694,51,46,867
195129,3041180,3121220,3042485,3124405,280,1596,-340,3361,1161,1706,1525,5517,50,30,868
196130,3041560,3121528,3042812,3124732,232,1530,-411,3580,1213,1847,1350,5564,50,30,868
197131,3042000,3121832,3043139,3125059,-193,1565,-464,3749,1281,1345,458,5103,43,31,870
198132,3042400,3122136,3043466,3125386,25,1575,-529,3830,1325,1561,407,5290,43,31,870
199133,3042772,3122468,3043793,3125713,180,1398,-551,3930,1363,852,666,5188,48,37,868
200134,3043164,3122728,3044120,3126040,27,1877,-486,4023,1473,385,200,5019,48,37,868
201135,3043500,3123024,3044447,3126367,373,1666,-446,4010,1472,180,337,5565,43,38,869
202136,3043900,3123316,3044774,3126694,-59,1706,-452,3787,1427,1055,399,3780,43,38,869
203137,3044244,3123612,3045101,3127021,283,1695,-537,3645,1270,2178,1496,4454,55,44,866
204138,3044616,3123904,3045428,3127348,88,1735,-617,3483,1084,718,1041,5737,55,44,866
205139,3044972,3124220,3045755,3127675,176,1590,-737,3363,1052,-1177,508,5815,45,46,867
206140,3045232,3124536,3046082,3128002,805,1596,-942,3372,974,-1035,1511,6619,45,46,867
207140,3045540,3124852,3046409,3128329,513,1600,-1054,3166,883,-2421,1645,5450,48,38,867
208142,3045872,3125172,3046736,3128656,361,1579,-1067,3032,800,-3142,146,7453,48,38,867
209143,3046220,3125468,3047063,3128983,252,1742,-990,2809,775,-1943,-169,5940,33,42,865
210153,3046512,3125756,3047424,3129344,632,1824,-909,2557,763,-661,-252,5874,33,42,865
211145,3046812,3126024,3047751,3129671,594,1975,-858,2283,711,235,-370,5872,38,33,867
212146,3047084,3126352,3048078,3129998,793,1600,-781,1954,608,938,68,5556,38,33,867
213147,3047376,3126664,3048405,3130325,684,1706,-672,1545,357,197,-7,5860,33,30,863
214148,3047596,3126944,3048732,3130652,1181,1927,-523,1034,103,-1835,-1171,5451,33,30,863
215149,3047840,3127260,3049059,3130979,1067,1707,-373,497,-56,-2476,-1683,5999,30,38,865
216149,3048060,3127536,3049386,3131306,1264,1979,-209,56,-244,-2591,-791,6751,30,38,865
217150,3048256,3127868,3049713,3131633,1472,1627,-24,-288,-366,-2900,-615,6374,32,39,860
218151,3048468,3128168,3050040,3131960,1422,1839,198,-476,-505,-2185,-520,6764,32,39,860
219152,3048624,3128468,3050367,3132287,1848,1851,417,-558,-641,-1165,-1700,6626,35,45,859
220153,3048796,3128760,3050694,3132614,1817,1917,633,-605,-775,-152,-1672,6552,35,45,859
221154,3048996,3129060,3051021,3132941,1697,1879,904,-677,-1006,1086,-1180,6604,20,30,858
222155,3049196,3129380,3051348,3133268,1753,1757,1181,-769,-1295,1491,-1104,6412,20,30,858
223156,3049388,3129704,3051675,3133595,1863,1733,1427,-830,-1532,774,-1680,6122,35,37,854
224157,3049584,3130004,3052002,3133922,1895,1895,1636,-930,-1670,315,-1872,5372,33,33,856
225159,3049784,3130304,3052329,3134249,1926,1907,1835,-1108,-1733,-110,-1118,5018,33,33,856
226160,3049992,3130644,3052656,3134576,1928,1651,2044,-1286,-1844,-1038,-530,5294,31,35,854
227161,3050204,3130964,3052983,3134903,1954,1780,2246,-1515,-1972,-1533,-401,4314,31,35,854
228161,3050392,3131296,3053310,3135230,2165,1702,2362,-1696,-2037,-2081,-1382,4231,24,46,855
229163,3050604,3131668,3053637,3135557,2065,1433,2389,-1915,-2081,-2157,-1089,2998,24,46,855
230164,3050840,3132052,3053964,3135884,1955,1332,2411,-2197,-2128,-1349,-122,2615,23,42,853
231165,3051088,3132424,3054291,3136211,1915,1388,2428,-2413,-2233,-443,86,2742,23,42,853
232165,3051308,3132804,3054618,3136538,2137,1314,2415,-2617,-2300,17,-411,1791,26,48,858
233167,3051548,3133200,3054945,3136865,2050,1184,2400,-2847,-2317,169,-233,1580,26,48,858
234168,3051804,3133640,3055272,3137192,1982,860,2397,-3096,-2376,-667,142,1801,43,57,854
235169,3052108,3134036,3055599,3137519,1692,1105,2402,-3349,-2440,-1610,0,2331,43,57,854
236170,3052324,3134488,3055926,3137846,2290,700,2407,-3626,-2473,-2164,-214,2012,36,55,861
237171,3052624,3134936,3056253,3138173,1777,672,2388,-3905,-2507,-1974,427,1779,36,55,861
238172,3052892,3135360,3056580,3138500,2004,779,2354,-4105,-2542,-1097,677,2389,37,46,859
239172,3053192,3135812,3056907,3138827,1816,549,2302,-4515,-2684,-79,368,941,37,46,859
240173,3053540,3136216,3057234,3139154,1507,816,2280,-4808,-2780,-571,338,1606,47,52,862
241175,3053860,3136656,3057561,3139481,1685,541,2284,-5114,-2831,-1125,-258,1606,47,52,862
242176,3054168,3137092,3057888,3139808,1768,518,2259,-5490,-2912,-999,-187,1386,31,54,865
243177,3054508,3137560,3058215,3140135,1563,256,2260,-5856,-3026,-1154,22,2008,31,54,865
244177,3054848,3137996,3058542,3140462,1557,408,2271,-6231,-3116,-1823,46,1910,50,51,865
245179,3055212,3138424,3058869,3140789,1391,414,2253,-6607,-3184,-1656,139,1463,50,51,865
246180,3055588,3138896,3059196,3141116,1294,75,2235,-6950,-3246,-786,306,1628,53,59,867
247181,3055924,3139316,3059523,3141443,1540,359,2246,-7123,-3325,50,387,2235,53,59,867
248181,3056280,3139740,3059850,3141770,1402,292,2261,-7275,-3362,166,379,1131,38,46,870
249183,3056648,3140136,3060177,3142097,1309,436,2216,-7325,-3397,619,957,1946,38,46,870
250184,3057012,3140568,3060504,3142424,1318,165,2171,-7252,-3460,1498,1243,2371,48,44,869
251185,3057400,3140984,3060831,3142751,1141,226,2128,-7275,-3529,874,887,1426,48,44,869
252186,3057756,3141400,3061158,3143078,1329,187,2030,-7315,-3604,351,978,1748,53,49,870
253187,3058104,3141852,3061485,3143405,1370,-93,1918,-7368,-3666,43,1494,1459,53,49,870
254188,3058444,3142312,3061812,3143732,1415,-200,1718,-7624,-3725,-947,2103,756,36,56,870
255189,3058788,3142744,3062139,3144059,1382,-72,1489,-7941,-3696,-1984,1774,1169,36,56,870
256189,3059144,3143152,3062466,3144386,1294,43,1439,-8427,-3686,-1682,1546,-909,36,54,867
257191,3059464,3143528,3062793,3144713,1522,221,1442,-8807,-3963,-3012,3212,-74,36,54,867
258192,3059832,3143844,3063120,3145040,1204,601,1307,-8891,-4112,-1510,2098,1686,35,56,871
259193,3060160,3144136,3063447,3145367,1454,766,1134,-8629,-4043,1745,1022,1200,35,56,871
260201,3060512,3144508,3063808,3145728,1308,262,977,-8112,-3966,3687,1293,4187,35,40,869
261195,3060832,3144872,3064135,3146055,1511,295,865,-7223,-3927,5125,124,7198,35,40,869
262195,3061140,3145192,3064462,3146382,1594,573,629,-6467,-3890,5975,659,4100,45,41,869
263196,3061428,3145520,3064789,3146709,1737,523,275,-5548,-3838,6426,1446,7216,45,41,869
264197,3061736,3145792,3065116,3147036,1620,897,-157,-4535,-3598,6970,1682,5951,39,25,866
265198,3062032,3146012,3065443,3147363,1708,1269,-575,-3531,-3383,7054,2172,4842,39,25,866
266200,3062304,3146272,3065770,3147690,1883,1049,-968,-2740,-3419,6560,2268,3518,34,29,864
267200,3062628,3146500,3066097,3148017,1559,1292,-1467,-2114,-3576,6214,3201,2216,34,29,864
268201,3062904,3146744,3066424,3148344,1882,1229,-2004,-1395,-3629,5521,3490,2212,43,27,861
269202,3063228,3146992,3066751,3148671,1584,1238,-2593,-398,-3487,5643,3002,4516,43,27,861
270204,3063552,3147184,3067078,3148998,1585,1648,-3170,655,-3341,7401,3550,4433,33,32,859
271204,3063908,3147356,3067405,3149325,1372,1841,-3711,1735,-3293,8332,3186,5249,33,32,859
272205,3064156,3147516,3067732,3149652,2082,1989,-4204,2617,-3273,7481,2661,4841,34,27,859
273206,3064512,3147704,3068059,3149979,1394,1875,-4618,3196,-3221,4858,2284,5489,34,27,859
274208,3064752,3147816,3068386,3150306,2157,2445,-4955,3522,-3099,2142,1879,5126,35,20,851
275209,3065040,3147972,3068713,3150633,1875,2245,-5163,3564,-2932,197,1270,4600,35,20,851
276209,3065284,3148100,3069040,3150960,2186,2507,-5362,3399,-2800,-862,486,3297,34,17,847
277211,3065580,3148216,3069367,3151287,1875,2675,-5580,3265,-2700,-644,366,3734,34,17,847
278211,3065844,3148408,3069694,3151614,2102,2259,-5793,3130,-2555,92,713,3213,40,34,844
279212,3066144,3148652,3070021,3151941,1889,1971,-5897,3252,-2343,618,191,5789,40,34,844
280213,3066476,3148892,3070348,3152268,1687,2034,-5897,3405,-2084,-49,198,5724,37,26,848
281214,3066800,3149144,3070675,3152595,1738,1992,-5855,3403,-1835,-1005,246,5946,37,26,848
282216,3067108,3149372,3071002,3152922,1847,2187,-5710,3381,-1659,-315,-308,7783,48,35,854
283216,3067432,3149620,3071329,3153249,1749,2096,-5475,3327,-1585,-196,-604,8208,48,35,854
284217,3067784,3149848,3071656,3153576,1563,2265,-5117,3206,-1471,-691,-1231,8789,50,36,852
285218,3068128,3150028,3071983,3153903,1606,2629,-4621,2948,-1374,-972,-1451,9255,50,36,852
286219,3068468,3150228,3072310,3154230,1625,2560,-3992,2597,-1320,-2791,-2507,9977,51,35,853
287220,3068784,3150448,3072637,3154557,1780,2482,-3311,2217,-1245,-3787,-3462,10759,51,35,853
288221,3069132,3150612,3072964,3154884,1570,2904,-2653,1910,-1207,-1840,-2843,11013,43,29,850
289222,3069456,3150828,3073291,3155211,1722,2628,-2064,1829,-1181,-105,-2743,11408,43,29,850
290224,3069828,3151076,3073618,3155538,1402,2462,-1592,2067,-1200,1389,-2835,12474,56,22,847
291225,3070284,3151280,3073945,3155865,820,2791,-1178,2424,-1327,3002,-2168,11841,56,22,847
292226,3070760,3151500,3074272,3156192,630,2738,-781,2780,-1387,2443,-2127,10647,52,35,852
293227,3071260,3151732,3074599,3156519,404,2705,-378,3006,-1290,961,-2695,9692,52,35,852
294228,3071752,3151992,3074926,3156846,381,2560,121,3116,-1172,863,-2546,8682,65,28,854
295229,3072336,3152252,3075253,3157173,-307,2590,619,3106,-1125,332,-2137,7529,65,28,854
296230,3072820,3152532,3075580,3157500,249,2486,985,3031,-1111,-431,-1756,7186,60,38,857
297231,3073368,3152876,3075907,3157827,-247,2078,1243,3199,-1038,707,-1234,7893,60,38,857
298232,3073780,3153228,3076234,3158154,566,2017,1460,3617,-919,2807,-658,6897,65,44,859
299233,3074220,3153572,3076561,3158481,341,2060,1677,4048,-885,3373,-145,6710,65,44,859
300234,3074640,3153908,3076888,3158808,425,2106,1826,4387,-914,2744,114,6037,68,46,861
301235,3075036,3154264,3077215,3159135,545,1968,1882,4600,-880,1330,-157,5211,68,46,861
302236,3075472,3154660,3077542,3159462,247,1688,1879,4680,-746,625,-83,3503,56,58,863
303237,3076000,3155072,3077869,3159789,-416,1550,1835,4742,-696,1094,944,3320,56,58,863
304238,3076496,3155444,3078196,3160116,-290,1781,1724,4804,-735,574,1503,2974,55,42,867
305239,3076880,3155824,3078523,3160443,385,1707,1568,4929,-703,828,1046,2451,55,42,867
306240,3077344,3156224,3078850,3160770,-176,1551,1392,5092,-693,2435,1458,2323,45,46,866
307241,3077724,3156640,3079177,3161097,326,1412,1256,5315,-767,3120,1893,1918,45,46,866
308241,3078116,3157044,3079504,3161424,222,1453,1161,5549,-830,2345,1151,2877,55,44,868
309243,3078484,3157424,3079831,3161751,354,1580,1116,5728,-799,2363,501,2115,55,44,868
310250,3078892,3157800,3080192,3162112,84,1598,1150,5859,-823,2679,501,2968,49,36,869
311245,3079292,3158148,3080519,3162439,102,1764,1195,5887,-883,1546,-30,1915,49,36,869
312246,3079736,3158524,3080846,3162766,-225,1568,1284,5839,-935,443,-86,2573,52,39,868
313247,3080228,3158884,3081173,3163093,-597,1653,1444,5704,-998,663,-234,1122,52,39,868
314248,3080648,3159320,3081500,3163420,-188,1130,1652,5721,-1105,1196,-1234,2530,54,46,867
315249,3080988,3159720,3081827,3163747,306,1323,1962,5940,-1160,1091,-1954,1466,54,46,867
316250,3081244,3160124,3082154,3164074,862,1264,2338,5984,-1120,1641,-591,-750,44,50,870
317250,3081452,3160560,3082481,3164401,1215,1016,2603,5822,-1122,666,-2011,1131,44,50,870
318251,3081744,3161040,3082808,3164728,705,675,2586,5405,-1042,-3036,-1050,-1207,55,53,868
319252,3082096,3161468,3083135,3165055,319,956,2313,4594,-1001,-6469,1054,-1136,55,53,868
320253,3082452,3161920,3083462,3165382,281,751,2023,3459,-984,-8312,3142,811,53,53,871
321254,3082760,3162376,3083789,3165709,590,669,1792,2342,-1137,-8244,2962,1407,53,53,871
322255,3083032,3162840,3084116,3166036,839,559,1671,1313,-1428,-6795,-242,1855,47,60,872
323257,3083276,3163284,3084443,3166363,1050,633,1639,148,-1558,-7723,-336,2276,47,60,872
324258,3083500,3163760,3084770,3166690,1221,367,1626,-900,-1499,-7823,464,2405,37,52,871
325259,3083732,3164180,3085097,3167017,1212,676,1609,-1767,-1452,-6285,-414,1889,37,52,871
326260,3083884,3164628,3085424,3167344,1789,448,1602,-2605,-1462,-5984,-929,1652,34,50,870
327261,3084100,3165024,3085751,3167671,1438,743,1554,-3358,-1463,-6760,-201,1914,34,50,870
328261,3084308,3165488,3086078,3167998,1540,258,1454,-4112,-1426,-6658,331,1213,33,53,865
329262,3084500,3165944,3086405,3168325,1700,251,1274,-4924,-1424,-6289,368,-20,33,53,865
330264,3084728,3166372,3086732,3168652,1518,381,1016,-5819,-1490,-7108,1128,-836,20,56,867
331265,3084964,3166796,3087059,3168979,1508,364,755,-6662,-1537,-6961,1155,83,20,56,867
332266,3085200,3167288,3087386,3169306,1549,-134,526,-7511,-1560,-6181,1445,-453,35,51,867
333266,3085440,3167692,3087713,3169633,1562,382,387,-8298,-1610,-5792,1219,171,35,51,867
334267,3085688,3168116,3088040,3169960,1547,215,321,-8900,-1598,-5117,-95,402,37,43,868
335269,3085956,3168592,3088367,3170287,1448,-176,321,-9374,-1480,-4239,-884,239,37,43,868
336269,3086256,3168988,3088694,3170614,1260,294,347,-9741,-1346,-3522,-1353,89,35,58,867
337271,3086544,3169380,3089021,3170941,1352,290,387,-10015,-1151,-2667,-1890,-45,35,58,867
338272,3086860,3169748,3089348,3171268,1182,423,471,-10098,-999,-1553,-1087,1055,33,51,870
339273,3087160,3170156,3089675,3171595,1294,138,619,-10091,-1085,711,512,1505,33,51,870
340273,3087484,3170556,3090002,3171922,1145,156,897,-9997,-1154,1812,-407,3376,46,45,870
341275,3087800,3170912,3090329,3172249,1200,418,1240,-9684,-1139,2373,-819,4571,46,45,870
342275,3088152,3171280,3090656,3172576,964,325,1606,-9215,-1105,4102,-1807,5981,50,42,871
343277,3088460,3171636,3090983,3172903,1247,387,1994,-8490,-1131,6013,-1525,7930,50,42,871
344277,3088788,3171920,3091310,3173230,1122,856,2192,-7551,-1239,6857,125,8437,37,29,869
345278,3089108,3172216,3091637,3173557,1175,795,2302,-6499,-1395,7496,896,8519,37,29,869
346280,3089440,3172560,3091964,3173884,1098,487,2375,-5613,-1540,6758,1201,7669,47,41,868
347281,3089760,3172888,3092291,3174211,1176,587,2400,-4981,-1635,5085,1433,6124,47,41,868
348282,3090036,3173248,3092618,3174538,1473,372,2334,-4545,-1725,3937,1444,4778,34,34,870
349283,3090348,3173632,3092945,3174865,1255,197,2193,-4244,-1755,1923,2230,4434,34,34,870
350283,3090624,3174024,3093272,3175192,1502,119,1931,-4088,-1669,-213,3382,2952,42,47,868
351284,3090924,3174348,3093599,3175519,1364,545,1569,-4255,-1597,-1390,3544,1576,42,47,868
352285,3091168,3174680,3093926,3175846,1751,493,1168,-4546,-1475,-3076,3489,1926,30,37,868
353286,3091460,3175052,3094253,3176173,1467,223,826,-4892,-1305,-3415,3501,1850,30,37,868
354287,3091736,3175440,3094580,3176500,1589,96,600,-5268,-1165,-3447,2947,1792,41,50,865
355288,3092040,3175756,3094907,3176827,1424,551,381,-5532,-1030,-3251,2339,2885,41,50,865
356290,3092320,3176116,3095234,3177154,1595,262,121,-5698,-949,-3611,2538,2993,44,43,868
357291,3092584,3176468,3095561,3177481,1723,301,-123,-5894,-813,-2690,1585,2548,44,43,868
358292,3092880,3176772,3095888,3177808,1536,611,-401,-6125,-619,-1341,2125,1818,42,42,867
359292,3093132,3177068,3096215,3178135,1844,674,-621,-6096,-493,-1087,1340,3909,42,42,867
360300,3093408,3177452,3096576,3178496,1732,114,-639,-6179,-353,-1927,523,2531,25,43,866
361294,3093680,3177828,3096903,3178823,1781,143,-544,-6376,-323,-1061,406,2410,25,43,866
362296,3093956,3178212,3097230,3179150,1778,68,-399,-6527,-335,-86,-944,3350,31,46,865
363296,3094208,3178568,3097557,3179477,1961,230,-221,-6192,-287,2404,-1890,5214,31,46,865
364298,3094464,3178920,3097884,3179804,1967,244,-2,-5529,-216,5143,-1498,6725,29,50,866
365298,3094788,3179244,3098211,3180131,1544,420,235,-4864,-193,6192,-582,6689,29,50,866
366300,3095100,3179568,3098538,3180458,1625,422,413,-4197,-161,6080,-481,6757,38,34,862
367300,3095424,3179884,3098865,3180785,1552,476,542,-3513,-172,5414,16,6612,38,34,862
368301,3095768,3180204,3099192,3181112,1419,455,636,-2896,-174,3653,-635,6005,40,39,866
369303,3096076,3180492,3099519,3181439,1653,672,697,-2495,-78,1757,-1352,5788,40,39,866
370304,3096416,3180776,3099846,3181766,1448,716,762,-2160,94,831,-1379,5511,35,41,867
371305,3096764,3181020,3100173,3182093,1389,1002,879,-1848,288,1590,-2239,5211,35,41,867
372306,3097160,3181284,3100500,3182420,1058,905,1027,-1566,466,2291,-2982,4982,51,39,866
373306,3097468,3181504,3100827,3182747,1617,1227,1155,-1297,619,2701,-2296,5142,51,39,866
374307,3097828,3181692,3101154,3183074,1277,1488,1291,-914,691,4169,-1540,5607,40,34,867
375308,3098160,3181904,3101481,3183401,1450,1388,1361,-600,739,4115,-1276,4791,40,34,867
376309,3098532,3182100,3101808,3183728,1180,1546,1409,-279,814,3058,-1689,5756,52,22,862
377310,3098892,3182320,3102135,3184055,1241,1443,1403,-54,932,1801,-1234,5328,52,22,862
378312,3099268,3182528,3102462,3184382,1119,1570,1421,75,1021,137,-666,5510,42,25,862
379312,3099660,3182732,3102789,3184709,991,1649,1475,129,1107,-233,-784,6149,42,25,862
380314,3100088,3182964,3103116,3185036,721,1516,1563,160,1182,513,-166,5807,50,21,863
381314,3100436,3183204,3103443,3185363,1212,1505,1635,262,1207,1212,-756,6297,50,21,863
382316,3100804,3183420,3103770,3185690,1069,1704,1625,366,1268,1409,-229,5568,53,22,864
383316,3101204,3183656,3104097,3186017,837,1619,1563,596,1289,2433,385,5973,53,22,864
384317,3101644,3183916,3104424,3186344,537,1498,1463,813,1329,1420,392,5349,49,29,862
385318,3102040,3184160,3104751,3186671,782,1635,1364,1020,1379,665,480,5188,49,29,862
386319,3102492,3184420,3105078,3186998,378,1564,1245,1037,1397,974,578,4752,60,38,866
387320,3102916,3184688,3105405,3187325,510,1540,1098,1054,1436,588,655,3932,60,38,866
388322,3103384,3184940,3105732,3187652,173,1673,957,1192,1491,1043,523,4891,60,32,864
389323,3103812,3185180,3106059,3187979,379,1787,803,1401,1573,967,354,4115,60,32,864
390324,3104236,3185444,3106386,3188306,361,1664,591,1567,1687,888,1069,3639,45,26,867
391325,3104740,3185752,3106713,3188633,-216,1398,356,1757,1731,1559,1600,4508,45,26,867
392326,3105196,3186016,3107040,3188960,27,1700,148,2051,1783,1254,1150,3819,54,41,866
393327,3105628,3186292,3107367,3189287,131,1648,-30,2362,1797,1792,575,3832,54,41,866
394328,3105996,3186560,3107694,3189614,513,1724,-153,2740,1806,2696,342,4290,46,43,867
395328,3106384,3186844,3108021,3189941,361,1642,-244,3135,1864,3013,289,3692,46,43,867
396329,3106748,3187140,3108348,3190268,495,1581,-343,3669,1862,3153,20,4055,46,34,866
397330,3107148,3187448,3108675,3190595,238,1514,-480,4165,1844,3566,425,3404,46,34,866
398332,3107580,3187756,3109002,3190922,-9,1523,-654,4636,1790,4048,950,2795,45,44,866
399332,3107972,3188052,3109329,3191249,213,1611,-795,5111,1810,3401,702,3166,45,44,866
400333,3108340,3188352,3109656,3191576,345,1599,-901,5653,1870,3125,345,3683,48,32,868
401334,3108700,3188612,3109983,3191903,380,1879,-966,6130,1892,2969,426,3442,48,32,868
402336,3109192,3188940,3110310,3192230,-517,1453,-1001,6418,1910,1974,358,3422,42,30,867
403337,3109616,3189264,3110637,3192557,-135,1480,-997,6601,1866,1110,-84,3694,42,30,867
404337,3109920,3189576,3110964,3192884,625,1561,-998,6497,1793,1061,-983,2527,51,47,866
405339,3110228,3189940,3111291,3193211,609,1220,-1008,6155,1766,-482,-561,2792,51,47,866
406339,3110556,3190268,3111618,3193538,483,1445,-1027,5702,1688,-2931,-35,4056,51,36,867
407340,3110868,3190648,3111945,3193865,590,1096,-1071,5134,1574,-4611,-361,3903,51,36,867
408341,3111252,3191000,3112272,3194192,115,1260,-1222,4558,1448,-5061,327,4679,48,52,868
409342,3111568,3191360,3112599,3194519,545,1196,-1278,3972,1414,-5795,101,2990,48,52,868
410353,3111884,3191688,3112960,3194880,564,1410,-1329,3449,1377,-3575,459,5062,45,50,869
411344,3112172,3192068,3113287,3195207,756,1062,-1333,2917,1226,-3497,178,5285,45,50,869
412345,3112464,3192396,3113614,3195534,747,1387,-1315,2315,1092,-5155,-160,5098,30,50,868
413346,3112768,3192716,3113941,3195861,682,1440,-1322,1577,941,-4325,-522,4828,30,50,868
414347,3113024,3193004,3114268,3196188,1013,1657,-1315,768,652,-2260,-749,4197,29,50,867
415348,3113284,3193368,3114595,3196515,1018,1165,-1262,-73,358,-2988,-1003,5110,29,50,867
416349,3113472,3193704,3114922,3196842,1529,1338,-1111,-726,149,-4556,-1637,5938,23,37,864
417350,3113688,3194020,3115249,3197169,1402,1467,-937,-1274,12,-4177,-1936,6131,23,37,864
418351,3113876,3194368,3115576,3197496,1639,1258,-726,-1704,-152,-3082,-1337,6630,31,44,862
419352,3114116,3194660,3115903,3197823,1352,1623,-473,-2047,-381,-2233,-1188,6573,31,44,862
420353,3114324,3194984,3116230,3198150,1604,1425,-54,-2163,-667,-961,-3012,8175,28,37,861
421355,3114520,3195284,3116557,3198477,1738,1587,356,-2239,-938,-137,-3795,7297,28,37,861
422356,3114708,3195572,3116884,3198804,1849,1679,704,-2349,-1171,524,-2746,6473,33,44,860
423357,3114884,3195864,3117211,3199131,1990,1669,1030,-2511,-1463,905,-2032,6393,33,44,860
424358,3115104,3196196,3117538,3199458,1762,1417,1389,-2846,-1779,-271,-1515,5257,34,35,856
425359,3115308,3196500,3117865,3199785,1916,1602,1741,-3149,-1909,-2264,-3015,5555,34,35,856
426360,3115524,3196784,3118192,3200112,1890,1746,2014,-3443,-1871,-3258,-3072,4972,21,44,857
427361,3115760,3197088,3118519,3200439,1805,1631,2161,-3788,-1873,-2823,-1217,4052,21,44,857
428362,3115960,3197428,3118846,3200766,2086,1400,2243,-4152,-2052,-1676,-156,3457,33,44,855
429363,3116152,3197776,3119173,3201093,2195,1341,2276,-4375,-2274,-619,-207,3585,33,44,855
430364,3116400,3198128,3119500,3201420,1880,1305,2264,-4474,-2402,-94,-292,2912,23,45,856
431365,3116640,3198472,3119827,3201747,1968,1348,2208,-4482,-2491,-208,257,2862,23,45,856
432366,3116904,3198836,3120154,3202074,1846,1207,2151,-4503,-2518,-106,467,2850,39,51,855
433367,3117168,3199180,3120481,3202401,1873,1325,2058,-4507,-2517,14,657,2552,39,51,855
434368,3117428,3199568,3120808,3202728,1928,1023,1916,-4491,-2534,364,988,2294,45,53,859
435369,3117768,3199964,3121135,3203055,1422,943,1803,-4436,-2608,1223,1108,2570,45,53,859
436370,3118056,3200344,3121462,3203382,1764,1020,1720,-4442,-2711,908,911,2432,37,52,859
437371,3118376,3200736,3121789,3203709,1567,916,1623,-4496,-2765,-631,953,2421,37,52,859
438372,3118696,3201124,3122116,3204036,1570,914,1508,-4600,-2793,-1102,1101,1653,44,55,862
439373,3118980,3201568,3122443,3204363,1815,513,1444,-4760,-2853,-788,976,2081,44,55,862
440373,3119304,3202004,3122770,3204690,1567,515,1409,-4929,-2942,-467,503,2396,40,51,864
441374,3119636,3202464,3123097,3205017,1514,306,1384,-5089,-3025,-116,-2,2220,40,51,864
442376,3119980,3202948,3123424,3205344,1432,87,1361,-5251,-3119,132,471,2755,38,52,865
443377,3120352,3203384,3123751,3205671,1237,340,1357,-5353,-3218,242,473,3387,38,52,865
444378,3120672,3203864,3124078,3205998,1565,-3,1355,-5518,-3397,22,533,2726,45,56,868
445378,3121056,3204312,3124405,3206325,1140,144,1346,-5720,-3552,-131,782,3296,45,56,868
446380,3121412,3204748,3124732,3206652,1302,171,1359,-5815,-3659,453,1011,3889,50,57,868
447380,3121784,3205140,3125059,3206979,1183,418,1376,-5834,-3738,873,832,3710,50,57,868
448382,3122140,3205576,3125386,3207306,1270,95,1361,-5809,-3825,1302,1077,4094,43,42,870
449383,3122548,3206000,3125713,3207633,909,127,1334,-5705,-3923,2337,1282,3710,43,42,870
450384,3122924,3206372,3126040,3207960,1088,432,1307,-5653,-4025,2142,1144,3015,53,57,870
451384,3123260,3206732,3126367,3208287,1334,493,1265,-5630,-4066,793,825,2941,53,57,870
452385,3123572,3207148,3126694,3208614,1490,104,1084,-5824,-4057,-644,1889,1448,41,42,871
453386,3123916,3207512,3127021,3208941,1283,412,901,-5977,-4034,-701,2030,2615,41,42,871
454388,3124220,3207892,3127348,3209268,1543,289,819,-6107,-4033,-843,1042,2185,42,40,867
455389,3124536,3208280,3127675,3209595,1474,213,701,-6431,-4046,-2078,1352,336,42,40,867
456390,3124840,3208772,3128002,3209922,1559,-509,538,-6710,-4077,-1729,1810,1259,33,55,867
457391,3125152,3209204,3128329,3210249,1516,-180,440,-7001,-4027,-1658,124,560,33,55,867
458392,3125492,3209596,3128656,3210576,1335,41,512,-7365,-4107,-1066,1184,-1132,36,43,866
459393,3125812,3209952,3128983,3210903,1463,253,602,-7460,-4316,-2002,2030,691,36,43,866
460401,3126168,3210188,3129344,3211264,1240,1058,639,-7306,-4373,-305,153,1136,35,44,869
461394,3126456,3210488,3129671,3211591,1682,670,796,-7276,-4335,826,-1242,1063,35,44,869
462396,3126728,3210868,3129998,3211918,1807,147,793,-7018,-4255,1537,-990,2557,40,38,869
463396,3127036,3211176,3130325,3212245,1590,605,536,-6494,-4092,3845,489,5773,40,38,869
464398,3127308,3211480,3130652,3212572,1839,640,166,-5766,-3875,5765,1573,4443,36,46,865
465399,3127620,3211740,3130979,3212899,1596,945,-257,-4880,-3666,5823,1082,4599,36,46,865
466400,3127896,3212004,3131306,3213226,1843,948,-732,-3866,-3524,6048,1679,4766,31,28,863
467401,3128184,3212260,3131633,3213553,1785,1029,-1228,-2992,-3486,6406,2959,3597,31,28,863
468401,3128476,3212496,3131960,3213880,1776,1194,-1762,-2427,-3596,6292,3566,1419,36,34,862
469403,3128796,3212748,3132287,3214207,1604,1127,-2274,-2090,-3665,4689,3396,1431,36,34,862
470404,3129096,3212968,3132614,3214534,1740,1374,-2734,-1347,-3579,3903,2463,4227,46,32,860
471405,3129416,3213176,3132941,3214861,1620,1501,-3216,-443,-3418,5181,1976,3974,46,32,860
472406,3129732,3213324,3133268,3215188,1649,1955,-3588,604,-3325,7299,1495,5852,33,30,861
473406,3130036,3213484,3133595,3215515,1735,1953,-3941,1736,-3315,9065,1175,7422,33,30,861
474408,3130324,3213600,3133922,3215842,1852,2321,-4114,2767,-3272,8479,185,8135,47,12,858
475409,3130636,3213668,3134249,3216169,1708,2735,-4193,3660,-3169,6980,-467,8044,47,12,858
476410,3130904,3213788,3134576,3216496,2009,2501,-4194,4358,-3082,5527,-606,8331,48,15,852
477411,3131184,3213944,3134903,3216823,1955,2351,-4188,4836,-3016,3756,-1244,6385,48,15,852
478412,3131524,3214156,3135230,3217150,1574,2051,-4156,5216,-2895,2939,-1644,7024,52,22,846
479413,3131860,3214392,3135557,3217477,1595,1941,-4117,5551,-2782,2644,-1429,6230,52,22,846
480414,3132224,3214600,3135884,3217804,1404,2169,-4036,5801,-2652,2083,-1396,6322,52,21,848
481415,3132604,3214852,3136211,3218131,1281,1926,-3927,5980,-2507,1544,-1504,6407,52,21,848
482416,3132972,3215056,3136538,3218458,1338,2281,-3773,6009,-2375,632,-1970,7187,48,31,854
483417,3133336,3215284,3136865,3218785,1346,2174,-3508,5789,-2198,-1190,-2896,7224,48,31,854
484417,3133680,3215524,3137192,3219112,1464,2138,-3165,5359,-2014,-2231,-2178,7642,45,29,857
485418,3134052,3215788,3137519,3219439,1269,2016,-2771,4846,-1921,-2932,-1858,8213,45,29,857
486419,3134396,3216056,3137846,3219766,1438,2017,-2358,4329,-1817,-3354,-2642,8191,40,36,855
487421,3134784,3216280,3138173,3220093,1136,2337,-1933,3819,-1730,-2578,-2608,8493,40,36,855
488422,3135140,3216552,3138500,3220420,1323,2061,-1538,3436,-1604,-2880,-2675,8462,56,31,857
489423,3135564,3216848,3138827,3220747,855,1925,-1167,3040,-1410,-2722,-2871,8808,56,31,857
490424,3136016,3217164,3139154,3221074,626,1805,-750,2580,-1238,-2506,-2609,8802,51,42,856
491425,3136428,3217448,3139481,3221401,838,2024,-319,2060,-1042,-3741,-2721,8690,51,42,856
492426,3136884,3217716,3139808,3221728,506,2150,103,1646,-827,-3594,-2541,9279,61,32,861
493427,3137352,3218028,3140135,3222055,369,1881,477,1356,-637,-1589,-2418,9025,61,32,861
494428,3137784,3218300,3140462,3222382,548,2155,816,1191,-430,-831,-2169,9200,53,32,860
495428,3138228,3218628,3140789,3222709,422,1805,1137,1131,-229,-161,-1404,8868,53,32,860
496429,3138692,3218920,3141116,3223036,237,2045,1416,1165,-22,510,-999,9101,52,46,864
497431,3139120,3219256,3141443,3223363,417,1767,1677,1321,172,356,-1128,8718,52,46,864
498432,3139540,3219584,3141770,3223690,426,1817,1844,1494,398,1041,-307,6708,63,32,862
499433,3139988,3219868,3142097,3224017,198,2111,1918,1771,584,2287,111,6704,63,32,862
500433,3140432,3220240,3142424,3224344,172,1541,1866,2250,677,2750,399,6173,54,47,864
501435,3140856,3220580,3142751,3224671,254,1735,1738,2910,716,4499,1288,5559,54,47,864
502435,3141236,3220924,3143078,3224998,506,1703,1558,3625,689,5945,1508,4446,46,34,863
503437,3141644,3221256,3143405,3225325,295,1776,1371,4227,629,5305,1060,3553,46,34,863
504438,3142060,3221592,3143732,3225652,206,1747,1223,4725,539,4951,751,3158,45,35,866
505439,3142460,3221940,3144059,3225979,274,1662,1104,5194,434,4396,893,3088,45,35,866
506440,3142768,3222280,3144386,3226306,859,1707,1037,5530,340,3406,1072,2990,57,42,866
507441,3143216,3222636,3144713,3226633,-70,1594,1000,5688,309,2362,1204,3731,57,42,866
508442,3143576,3222984,3145040,3226960,466,1635,995,5756,361,1184,735,4325,39,42,866
509442,3143908,3223332,3145367,3227287,639,1626,1086,5829,423,777,267,3072,39,42,866
510450,3144316,3223696,3145728,3227648,143,1525,1263,5779,447,1002,-782,1401,39,46,867
511445,3144696,3224028,3146055,3227975,295,1723,1474,5549,421,120,-1816,2935,39,46,867
512445,3145048,3224348,3146382,3228302,459,1801,1687,5247,346,-1117,-1325,2392,41,36,865
513447,3145416,3224720,3146709,3228629,341,1456,1912,4990,306,-1098,-1021,2238,41,36,865
514448,3145812,3225104,3147036,3228956,135,1356,2127,4852,216,206,-727,1541,53,39,866
515449,3146284,3225496,3147363,3229283,-403,1278,2341,4720,44,698,-124,1203,53,39,866
516450,3146676,3225892,3147690,3229610,68,1222,2548,4932,-127,1300,-991,2111,36,39,868
517451,3146936,3226304,3148017,3229937,923,1085,2745,5245,-58,1753,-965,1162,36,39,868
518451,3147256,3226704,3148344,3230264,551,1128,2838,5428,-57,2367,400,-1317,41,40,869
519453,3147488,3227104,3148671,3230591,1142,1096,2699,5422,-48,920,495,-539,41,40,869
520454,3147752,3227532,3148998,3230918,970,876,2338,5314,-32,-2314,2363,-875,39,52,866
521455,3148056,3227984,3149325,3231245,730,672,1866,4913,-90,-2498,2690,-2133,39,52,866
522456,3148420,3228432,3149652,3231572,339,643,1463,4202,-194,-4875,3690,103,39,49,866
523457,3148716,3228864,3149979,3231899,778,697,1252,3204,-264,-7965,2894,804,39,49,866
524458,3148984,3229268,3150306,3232226,978,838,1267,1903,-417,-8725,220,2630,34,54,871
525459,3149228,3229732,3150633,3232553,1165,404,1365,480,-464,-10236,-2315,1731,34,54,871
526460,3149472,3230192,3150960,3232880,1201,371,1380,-831,-380,-10364,-1806,1172,29,50,871
527461,3149712,3230636,3151287,3233207,1265,419,1326,-1930,-291,-8572,-131,2134,29,50,871
528462,3149920,3231056,3151614,3233534,1517,528,1238,-2764,-259,-7052,214,2105,28,56,870
529462,3150152,3231484,3151941,3233861,1409,434,1086,-3371,-290,-5266,537,2624,28,56,870
530463,3150344,3231908,3152268,3234188,1718,416,821,-3857,-400,-4229,2055,2035,34,48,869
531464,3150560,3232340,3152595,3234515,1617,320,468,-4427,-563,-4656,2941,67,34,48,869
532465,3150772,3232780,3152922,3234842,1692,221,141,-5286,-711,-6290,2337,-430,25,54,867
533466,3150988,3233216,3153249,3235169,1716,198,-57,-6340,-796,-8180,795,-2,25,54,867
534467,3151224,3233660,3153576,3235496,1631,96,-141,-7539,-811,-9601,94,-394,32,43,866
535469,3151476,3234120,3153903,3235823,1564,-62,-103,-8694,-764,-8837,-1090,116,32,43,866
536469,3151748,3234552,3154230,3236150,1463,67,-29,-9608,-672,-7366,-2073,-66,38,45,866
537470,3152000,3234948,3154557,3236477,1621,261,32,-10226,-550,-5658,-2008,14,38,45,866
538472,3152320,3235412,3154884,3236804,1199,-224,37,-10492,-400,-3265,-1191,442,42,51,867
539473,3152612,3235884,3155211,3237131,1391,-338,-6,-10583,-321,-1377,575,321,42,51,867
540474,3152928,3236312,3155538,3237458,1245,-107,-67,-10658,-385,-405,1027,514,44,45,867
541474,3153268,3236648,3155865,3237785,1090,464,-159,-10869,-421,-337,-2,-145,44,45,867
542475,3153572,3236988,3156192,3238112,1325,433,-200,-10974,-373,-1185,-275,1079,36,42,866
543477,3153872,3237400,3156519,3238439,1362,-54,-105,-10980,-361,-209,838,1842,36,42,866
544478,3154272,3237764,3156846,3238766,705,230,192,-10840,-266,1301,-1000,3496,47,39,870
545478,3154624,3238160,3157173,3239093,994,0,648,-10474,-273,2821,-1976,5392,47,39,870
546479,3154976,3238456,3157500,3239420,983,638,1101,-10052,-346,3148,-2562,5446,47,51,870
547480,3155304,3238824,3157827,3239747,1132,170,1551,-9454,-390,4097,-2815,6036,47,51,870
548481,3155648,3239172,3158154,3240074,1025,286,1980,-8996,-517,4746,-2397,4864,39,37,872
549482,3155972,3239504,3158481,3240401,1151,384,2340,-8599,-664,3616,-1521,4250,39,37,872
550483,3156324,3239812,3158808,3240728,965,542,2615,-8118,-681,2767,-1365,4416,48,39,871
551484,3156652,3240244,3159135,3241055,1115,-279,2794,-7739,-720,2680,-804,3363,48,39,871
552486,3156964,3240624,3159462,3241382,1221,23,2785,-7432,-821,2600,357,2461,34,45,870
553487,3157256,3240992,3159789,3241709,1362,80,2710,-7096,-868,2182,1145,3439,34,45,870
554488,3157576,3241320,3160116,3242036,1190,329,2605,-6684,-851,1396,1210,4145,48,37,870
555489,3157912,3241636,3160443,3242363,1086,409,2489,-6359,-837,1531,1927,4417,48,37,870
556490,3158188,3242008,3160770,3242690,1483,39,2337,-6066,-774,675,2326,5330,46,35,870
557491,3158480,3242328,3161097,3243017,1399,367,2176,-5678,-701,-2560,1107,6365,46,35,870
558492,3158820,3242668,3161424,3243344,1093,237,1989,-5465,-531,-1010,706,4686,45,37,870
559492,3159112,3242980,3161751,3243671,1408,418,1704,-5423,-351,2212,2635,3492,45,37,870
560501,3159332,3243320,3162112,3244032,1921,252,1360,-5088,-394,3035,2608,4185,40,46,868
561495,3159596,3243652,3162439,3244359,1674,300,961,-4598,-269,2160,1129,4071,40,46,868
562496,3159868,3243932,3162766,3244686,1648,646,593,-3873,-39,3741,1950,5644,35,52,868
563497,3160112,3244304,3163093,3245013,1860,51,334,-3336,26,4282,2576,5072,35,52,868
564498,3160380,3244648,3163420,3245340,1735,219,181,-3111,-25,3128,1596,5472,38,40,864
565499,3160680,3245016,3163747,3245667,1547,52,108,-2912,-28,2951,1095,5980,38,40,864
566500,3160968,3245316,3164074,3245994,1639,488,73,-2255,-20,3979,540,7247,27,35,865
567501,3161264,3245652,3164401,3246321,1603,259,49,-1456,27,4868,207,6557,27,35,865
568502,3161592,3245964,3164728,3246648,1403,416,-11,-825,21,5860,147,4828,37,35,868
569503,3161928,3246228,3165055,3246975,1349,744,-153,-266,46,4000,-235,5109,37,35,868
570504,3162248,3246452,3165382,3247302,1452,1039,-341,343,224,2271,1,5129,40,33,867
571505,3162596,3246712,3165709,3247629,1268,843,-444,795,509,1198,819,5291,40,33,867
572506,3162884,3246928,3166036,3247956,1660,1167,-448,914,674,930,872,5592,33,36,867
573506,3163204,3247124,3166363,3248283,1463,1350,-338,652,734,-1018,-384,4953,33,36,867
574507,3163504,3247336,3166690,3248610,1600,1300,-152,276,786,-1164,-1840,5707,43,18,866
575508,3163788,3247512,3167017,3248937,1718,1592,97,-102,806,279,-2014,5232,43,18,866
576509,3164072,3247700,3167344,3249264,1737,1578,368,-373,843,500,-1824,5840,42,27,861
577511,3164356,3247900,3167671,3249591,1757,1559,641,-505,868,191,-1797,6520,42,27,861
578511,3164668,3248104,3167998,3249918,1589,1588,954,-563,917,-123,-1792,6546,37,21,857
579512,3165036,3248320,3168325,3250245,1221,1561,1226,-599,960,-249,-1212,6771,37,21,857
580513,3165392,3248516,3168652,3250572,1283,1744,1444,-751,998,-447,-1012,6452,46,38,857
581515,3165740,3248736,3168979,3250899,1324,1641,1549,-906,1129,-1576,-821,6651,46,38,857
582515,3166080,3248944,3169306,3251226,1368,1768,1589,-925,1276,-1244,-391,7159,50,31,862
583516,3166424,3249188,3169633,3251553,1336,1580,1560,-962,1357,-449,364,6587,50,31,862
584517,3166800,3249480,3169960,3251880,1114,1295,1482,-965,1404,316,1072,6775,43,27,860
585519,3167156,3249692,3170287,3252207,1226,1846,1411,-849,1495,1304,444,6725,43,27,860
586520,3167568,3249940,3170614,3252534,839,1655,1376,-584,1590,2531,330,6710,45,33,858
587521,3167972,3250164,3170941,3252861,855,1851,1347,-271,1633,3320,371,6066,45,33,858
588522,3168388,3250412,3171268,3253188,741,1735,1370,42,1650,3263,-271,5657,48,36,860
589523,3168848,3250648,3171595,3253515,408,1850,1391,335,1668,2372,-42,4829,48,36,860
590524,3169288,3250896,3171922,3253842,483,1810,1310,617,1684,1620,619,4032,61,28,861
591524,3169664,3251148,3172249,3254169,861,1818,1146,852,1708,1312,1028,3040,61,28,861
592525,3170132,3251372,3172576,3254496,225,2038,941,1067,1713,1494,1473,3658,48,38,864
593527,3170544,3251612,3172903,3254823,537,1977,738,1375,1734,1580,1399,3885,48,38,864
594528,3171012,3251876,3173230,3255150,126,1855,532,1802,1773,2130,1644,3271,48,23,862
595529,3171460,3252136,3173557,3255477,198,1910,386,2255,1847,3297,826,4271,48,23,862
596529,3171804,3252380,3173884,3255804,841,2046,331,2731,1957,3378,-285,3554,51,40,862
597531,3172192,3252660,3174211,3256131,539,1842,286,3250,1974,3417,-133,4279,51,40,862
598531,3172612,3252948,3174538,3256458,298,1809,226,3749,1942,3403,201,3839,56,32,865
599532,3173032,3253244,3174865,3256785,257,1773,168,4225,1908,3071,535,2840,56,32,865
600533,3173444,3253556,3175192,3257112,270,1679,100,4681,1877,2965,337,3174,46,35,864
601535,3173756,3253832,3175519,3257439,901,1927,54,5218,1898,3658,-178,3510,46,35,864
602536,3174128,3254128,3175846,3257766,506,1815,-6,5772,1917,3456,62,3585,41,37,865
603537,3174488,3254444,3176173,3258093,567,1695,-82,6224,1845,3143,386,3192,41,37,865
604538,3174928,3254760,3176500,3258420,17,1700,-178,6680,1757,3247,500,3252,41,40,861
605539,3175236,3255100,3176827,3258747,851,1544,-256,7159,1727,3463,61,2716,41,40,861
606540,3175620,3255432,3177154,3259074,351,1592,-345,7571,1804,2837,-1,3061,53,49,865
607540,3176024,3255760,3177481,3259401,192,1617,-462,7778,1765,1425,582,2774,53,49,865
608541,3176320,3256148,3177808,3259728,880,1215,-565,7478,1708,222,752,282,37,34,863
609543,3176528,3256528,3178135,3260055,1483,1242,-668,7037,1576,-1386,1941,1842,37,34,863
610553,3176856,3256888,3178496,3260416,747,1368,-839,6454,1420,-4674,1092,3269,48,49,867
611545,3177240,3257228,3178823,3260743,372,1487,-1037,5646,1337,-6632,1089,1525,48,49,867
612545,3177576,3257584,3179150,3261070,668,1374,-1188,4789,1250,-6661,1152,2559,50,46,863
613547,3177920,3257932,3179477,3261397,611,1415,-1262,3892,1103,-6739,749,3789,50,46,863
614547,3178228,3258276,3179804,3261724,844,1433,-1352,3077,1077,-8350,-406,3957,34,52,868
615548,3178536,3258644,3180131,3262051,852,1265,-1469,2172,1061,-6361,95,2944,34,52,868
616549,3178824,3259020,3180458,3262378,995,1193,-1545,1193,875,-4694,631,2733,33,39,867
617550,3179052,3259388,3180785,3262705,1413,1225,-1580,105,609,-4787,-333,2878,33,39,867
618552,3179300,3259712,3181112,3263032,1323,1501,-1556,-889,417,-5729,-1519,4332,28,47,867
619552,3179564,3260092,3181439,3263359,1250,1128,-1417,-1765,263,-5438,-1851,5258,28,47,867
620554,3179804,3260436,3181766,3263686,1439,1346,-973,-2398,81,-3601,-3011,8323,27,47,863
621554,3180028,3260772,3182093,3264013,1584,1392,-607,-2959,-74,-3080,-2875,5865,27,47,863
622556,3180276,3261080,3182420,3264340,1469,1575,-303,-3034,-413,1722,-1914,8099,36,44,864
623556,3180464,3261368,3182747,3264667,1905,1717,136,-2748,-801,2592,-2921,10621,36,44,864
624557,3180676,3261668,3183074,3264994,1806,1655,502,-2829,-973,-2643,-1728,6061,23,30,860
625558,3180852,3261992,3183401,3265321,2098,1506,713,-3386,-944,-5573,-2038,3168,23,30,860
626560,3181012,3262288,3183728,3265648,2271,1695,850,-4047,-930,-2825,-3806,3544,33,29,854
627561,3181220,3262596,3184055,3265975,2023,1628,968,-4608,-1155,-514,-1904,3063,33,29,854
628561,3181404,3262960,3184382,3266302,2236,1262,1139,-4963,-1434,-1176,-510,3138,27,36,854
629562,3181624,3263292,3184709,3266629,2058,1460,1312,-5160,-1582,-1428,-490,4096,27,36,854
630563,3181836,3263616,3185036,3266956,2159,1511,1358,-5419,-1570,-2443,-1048,2005,24,47,852
631564,3182064,3263988,3185363,3267283,2102,1191,1285,-5827,-1531,-3451,369,1013,24,47,852
632565,3182312,3264372,3185690,3267610,2012,1091,1216,-6152,-1597,-2516,1142,1844,26,46,855
633566,3182568,3264712,3186017,3267937,1993,1361,1162,-6398,-1710,-1957,539,1630,26,46,855
634568,3182828,3265100,3186344,3268264,1998,1034,1123,-6534,-1731,-1106,59,2078,40,36,857
635569,3183128,3265492,3186671,3268591,1759,980,1110,-6525,-1729,591,722,2693,40,36,857
636570,3183444,3265844,3186998,3268918,1664,1219,1090,-6424,-1839,1920,1266,2241,43,40,856
637570,3183760,3266220,3187325,3269245,1669,1048,1059,-6334,-1952,2485,1113,2222,43,40,856
638572,3184076,3266636,3187652,3269572,1674,759,1014,-6252,-2037,2365,1046,2695,39,40,862
639572,3184380,3267064,3187979,3269899,1759,639,992,-6179,-2161,1340,746,3423,39,40,862
640573,3184748,3267508,3188306,3270226,1342,488,964,-6154,-2224,265,127,3802,40,44,862
641574,3185088,3267968,3188633,3270553,1511,330,912,-6216,-2279,-84,289,3018,40,44,862
642576,3185480,3268380,3188960,3270880,1158,593,830,-6259,-2451,1113,986,3175,35,60,864
643576,3185844,3268836,3189287,3271207,1317,261,804,-6046,-2690,2524,1142,5326,35,60,864
644577,3186224,3269312,3189614,3271534,1193,71,833,-5653,-2899,3850,1226,5795,51,43,867
645578,3186644,3269780,3189941,3271861,902,59,883,-5189,-3080,5172,1205,5927,51,43,867
646579,3187032,3270212,3190268,3272188,1076,238,903,-4748,-3236,5929,1160,6287,56,42,869
647580,3187412,3270584,3190595,3272515,1102,593,882,-4328,-3423,5318,1871,5874,56,42,869
648582,3187824,3271048,3190922,3272842,865,-42,865,-4054,-3623,3124,2185,5607,58,48,873
649582,3188228,3271452,3191249,3273169,881,299,858,-3872,-3770,1715,1668,5510,58,48,873
650584,3188632,3271876,3191576,3273496,847,131,735,-3949,-3809,67,1382,4023,57,48,869
651584,3188980,3272288,3191903,3273823,1188,169,502,-4275,-3754,-2050,2066,2513,57,48,869
652586,3189312,3272780,3192230,3274150,1286,-403,295,-4618,-3695,-1941,1695,2643,48,54,870
653587,3189616,3273240,3192557,3274477,1471,-262,161,-4943,-3768,-1566,1696,1504,48,54,870
654588,3189912,3273636,3192884,3274804,1535,108,54,-5449,-3844,-2426,1988,177,42,54,870
655588,3190208,3274000,3193211,3275131,1548,292,-28,-5888,-3831,-2399,1406,885,42,54,870
656589,3190480,3274376,3193538,3275458,1722,195,-106,-6229,-3770,-2518,843,271,29,51,867
657591,3190788,3274800,3193865,3275785,1507,-148,-98,-6705,-3700,-2897,796,-714,29,51,867
658592,3191084,3275208,3194192,3276112,1595,-83,78,-7203,-3905,-1838,2484,-868,42,42,867
659593,3191352,3275584,3194519,3276439,1796,95,259,-7525,-4053,-1885,95,601,42,42,867
660600,3191624,3275812,3194880,3276800,1810,1079,349,-7599,-3942,-190,-1563,-14,33,56,867
661595,3191868,3276116,3195207,3277127,2022,614,395,-7404,-3819,2141,51,1989,33,56,867
662595,3192176,3276488,3195534,3277454,1630,169,475,-6802,-3731,3760,-492,4871,40,46,865
663596,3192464,3276844,3195861,3277781,1772,256,323,-6133,-3662,5653,-601,4149,40,46,865
664597,3192760,3277164,3196188,3278108,1736,484,35,-5332,-3568,6500,94,5893,34,44,861
665598,3193052,3277436,3196515,3278435,1776,809,-373,-4397,-3419,5912,873,5263,34,44,861
666599,3193324,3277704,3196842,3278762,1925,859,-749,-3361,-3251,5794,1688,5115,38,25,865
667600,3193640,3277888,3197169,3279089,1655,1447,-1072,-2562,-3179,5005,1617,4129,38,25,865
668601,3193944,3278164,3197496,3279416,1740,895,-1370,-2024,-3128,3448,1015,3601,38,31,862
669602,3194184,3278380,3197823,3279743,2179,1318,-1711,-1669,-3137,4059,2069,3405,38,31,862
670603,3194528,3278580,3198150,3280070,1521,1474,-2045,-1023,-3041,4207,1813,5668,32,29,859
671604,3194812,3278740,3198477,3280397,1915,1798,-2332,-24,-2866,5866,464,7367,32,29,859
672605,3195168,3278880,3198804,3280724,1453,2005,-2542,1140,-2775,7838,26,7784,47,23,855
673606,3195452,3278960,3199131,3281051,1922,2488,-2751,2329,-2736,8620,230,8786,47,23,855
674607,3195700,3279056,3199458,3281378,2182,2490,-2883,3411,-2677,8449,-419,8927,32,14,851
675608,3195980,3279152,3199785,3281705,2003,2592,-2889,4310,-2560,6989,-1367,8149,32,14,851
676609,3196272,3279304,3200112,3282032,1943,2319,-2799,4984,-2451,5473,-1430,7917,41,25,847
677610,3196620,3279484,3200439,3282359,1584,2209,-2703,5416,-2334,3347,-2015,6047,41,25,847
678611,3196984,3279704,3200766,3282686,1468,2006,-2658,5676,-2158,1703,-2604,5879,42,20,845
679612,3197328,3279916,3201093,3283013,1585,2106,-2619,5777,-1970,1210,-2225,5426,42,20,845
680613,3197700,3280168,3201420,3283340,1390,1889,-2570,5751,-1801,443,-1858,5168,47,21,853
681614,3198072,3280404,3201747,3283667,1370,2029,-2466,5585,-1602,-1147,-1699,6020,47,21,853
682615,3198400,3280656,3202074,3283994,1645,1962,-2312,5153,-1383,-2703,-2056,5854,51,27,854
683617,3198756,3280920,3202401,3284321,1457,1915,-2100,4525,-1158,-4317,-2235,6433,51,27,854
684618,3199076,3281176,3202728,3284648,1685,1996,-1824,3791,-928,-4844,-1430,6490,52,29,856
685619,3199408,3281368,3203055,3284975,1608,2456,-1541,3102,-746,-4051,-871,7323,52,29,856
686620,3199692,3281688,3203382,3285302,1927,1659,-1257,2470,-531,-4277,-1376,7642,52,34,856
687621,3199988,3281984,3203709,3285629,1867,1822,-952,1848,-264,-4410,-1901,7815,52,34,856
688622,3200352,3282308,3204036,3285956,1425,1649,-646,1245,21,-4758,-1803,7844,51,40,851
689623,3200700,3282636,3204363,3286283,1516,1623,-308,698,318,-4484,-1950,8267,51,40,851
690624,3201084,3282944,3204690,3286610,1266,1757,38,279,588,-3236,-2110,8510,52,30,854
691625,3201452,3283252,3205017,3286937,1348,1766,364,33,838,-2144,-2325,8530,52,30,854
692626,3201820,3283524,3205344,3287264,1330,2015,698,-59,1094,-554,-2087,8761,46,28,859
693627,3202200,3283808,3205671,3287591,1232,1959,1040,-20,1312,787,-1851,8939,46,28,859
694628,3202624,3284084,3205998,3287918,914,2031,1358,117,1522,946,-1996,9651,44,32,859
695629,3203004,3284368,3206325,3288245,1166,2000,1624,339,1713,1298,-1502,9186,44,32,859
696629,3203424,3284652,3206652,3288572,875,2019,1880,599,1887,1548,-1165,9140,54,32,857
697631,3203852,3284976,3206979,3288899,781,1770,2060,825,2050,1489,-597,7918,54,32,857
698632,3204284,3285240,3207306,3289226,710,2173,2187,1058,2190,1877,-29,7499,48,46,858
699633,3204676,3285556,3207633,3289553,931,1853,2218,1306,2279,1812,479,6563,48,46,858
700634,3205100,3285880,3207960,3289880,688,1804,2173,1529,2328,2039,1360,5601,61,42,862
701635,3205496,3286212,3208287,3290207,833,1752,2105,1814,2302,3053,1696,5592,61,42,862
702636,3205928,3286536,3208614,3290534,563,1803,2043,2186,2218,3225,1497,5635,51,32,861
703637,3206260,3286836,3208941,3290861,1186,1965,1948,2730,2136,3558,1077,5254,51,32,861
704638,3206616,3287136,3209268,3291188,1023,1977,1766,3361,1969,5155,1699,4869,48,33,862
705639,3207076,3287476,3209595,3291515,314,1722,1520,4091,1725,5807,2002,4444,48,33,862
706640,3207448,3287784,3209922,3291842,845,1931,1214,4729,1452,6001,2419,3455,58,40,859
707640,3207780,3288084,3210249,3292169,1093,1993,904,5296,1218,4875,2355,3673,58,40,859
708641,3208232,3288432,3210576,3292496,288,1683,643,5750,1013,4657,2442,2373,47,45,865
709642,3208668,3288772,3210903,3292823,340,1728,458,6207,759,4942,2529,2534,47,45,865
710650,3209036,3289092,3211264,3293184,762,1871,373,6480,588,3117,2373,3053,47,46,859
711644,3209416,3289396,3211591,3293511,663,1981,403,6817,532,2423,1654,2077,47,46,859
712645,3209820,3289740,3211918,3293838,479,1723,603,7217,481,3615,-237,3345,58,40,865
713646,3210272,3290096,3212245,3294165,125,1636,826,7515,409,2232,-423,2740,58,40,865
714648,3210680,3290504,3212572,3294492,364,1275,1003,7807,379,1018,541,2657,50,42,862
715648,3211060,3290880,3212899,3294819,516,1454,1142,7915,373,1533,860,1307,50,42,862
716650,3211528,3291256,3213226,3295146,-96,1432,1302,7785,389,345,-442,615,55,44,867
717651,3211920,3291672,3213553,3295473,350,1143,1519,7374,544,-2200,-1864,-307,55,44,867
718652,3212312,3292132,3213880,3295800,322,810,1821,6782,679,-3430,-2280,-575,43,60,865
719652,3212708,3292588,3214207,3296127,266,779,2190,6320,597,-2903,-3482,-1193,43,60,865
720654,3213084,3293092,3214534,3296454,370,401,2519,6035,498,-1871,-3152,-1089,41,58,870
721655,3213424,3293596,3214861,3296781,589,323,2639,5932,370,52,-1623,-1038,41,58,870
722656,3213688,3294056,3215188,3297108,1092,540,2395,5889,285,534,1395,-1989,49,64,873
723657,3213960,3294456,3215515,3297435,1066,883,1715,5935,214,-298,4398,-3390,49,64,873
724658,3214312,3294904,3215842,3297762,555,529,892,5861,105,602,5221,-1378,43,58,874
725659,3214656,3295392,3216169,3298089,597,209,275,5430,61,-3755,6172,122,43,58,874
726660,3214972,3295828,3216496,3298416,777,486,-15,4301,-20,-9199,5042,1398,38,59,868
727661,3215232,3296252,3216823,3298743,1157,518,52,2685,-188,-11357,540,3507,38,59,868
728661,3215460,3296684,3217150,3299070,1400,422,338,973,-217,-11832,-4644,2147,38,48,874
729662,3215724,3297164,3217477,3299397,1204,55,536,-477,-128,-10754,-4996,2216,38,48,874
730663,3215916,3297612,3217804,3299724,1713,202,651,-1627,9,-10672,-2258,3569,37,48,869
731665,3216132,3298112,3218131,3300051,1612,-199,706,-2595,43,-8538,-449,2037,37,48,869
732666,3216336,3298564,3218458,3300378,1741,46,576,-3443,-19,-6630,1015,2059,29,43,870
733667,3216524,3299016,3218785,3300705,1902,-9,209,-4270,-148,-6510,3054,971,29,43,870
734668,3216728,3299416,3219112,3301032,1856,284,-242,-5196,-244,-7568,3225,-105,23,53,866
735668,3216936,3299848,3219439,3301359,1883,38,-562,-6302,-310,-8421,1701,-134,23,53,866
736670,3217140,3300220,3219766,3301686,1963,393,-644,-7632,-373,-10682,-253,280,21,42,864
737670,3217384,3300640,3220093,3302013,1749,52,-548,-9093,-410,-11548,-1821,601,21,42,864
738672,3217632,3301072,3220420,3302340,1759,-69,-330,-10289,-422,-9093,-2906,1767,33,44,864
739673,3217920,3301484,3220747,3302667,1526,19,-118,-11075,-355,-6282,-2679,1356,33,44,864
740674,3218180,3301920,3221074,3302994,1730,-179,-16,-11389,-266,-3501,-1533,1484,42,56,864
741674,3218500,3302320,3221401,3303321,1358,14,-40,-11360,-203,-1076,-920,1250,42,56,864
742676,3218840,3302748,3221728,3303648,1228,-205,-151,-11359,-182,-815,31,280,33,42,868
743676,3219184,3303128,3222055,3303975,1195,72,-272,-11527,-126,-1515,220,-366,33,42,868
744677,3219540,3303472,3222382,3304302,1107,289,-353,-11848,-83,-2265,479,-634,50,50,869
745678,3219896,3303800,3222709,3304629,1095,389,-350,-12267,-64,-2746,-235,-820,50,50,869
746680,3220248,3304144,3223036,3304956,1109,281,-290,-12642,16,-2293,-1452,-665,53,46,870
747680,3220632,3304504,3223363,3305283,884,167,-184,-12876,214,-2315,-2222,-840,53,46,870
748682,3221008,3304868,3223690,3305610,912,126,-35,-12878,377,-1113,-1479,595,43,45,870
749683,3221332,3305224,3224017,3305937,1238,163,249,-12664,194,2410,898,2092,43,45,870
750684,3221672,3305580,3224344,3306264,1134,150,672,-12282,32,3275,-815,2919,46,44,872
751684,3222004,3305944,3224671,3306591,1182,84,1149,-11643,-64,4948,-2522,4778,46,44,872
752685,3222344,3306288,3224998,3306918,1126,201,1578,-10988,-181,5656,-3320,4955,33,45,870
753687,3222664,3306604,3225325,3307245,1254,381,2006,-10322,-182,5336,-3712,5323,33,45,870
754687,3223032,3306952,3225652,3307572,936,172,2445,-9847,-141,4815,-3070,4414,33,34,871
755689,3223380,3307368,3225979,3307899,1052,-292,2770,-9486,-131,3132,-2115,3773,33,34,871
756689,3223720,3307712,3226306,3308226,1096,150,2961,-9202,-39,1571,-1053,2542,38,45,869
757691,3224048,3308032,3226633,3308553,1170,303,3069,-8834,45,1911,244,3240,38,45,869
758691,3224432,3308348,3226960,3308880,795,333,3101,-8269,61,1473,426,5433,41,40,871
759692,3224696,3308632,3227287,3309207,1573,552,3194,-7437,19,575,-781,6146,41,40,871
760700,3225052,3308924,3227648,3309568,1000,533,3414,-6873,198,3426,-2215,4963,36,41,870
761695,3225376,3309196,3227975,3309895,1202,682,3716,-6509,316,6762,-2058,4575,36,41,870
762696,3225736,3309568,3228302,3310222,962,37,3996,-5842,72,5498,-2857,7109,41,47,864
763696,3226052,3309900,3228629,3310549,1242,285,4001,-5231,119,4538,-1865,4791,41,47,864
764697,3226344,3310204,3228956,3310876,1407,470,3875,-4233,350,8043,272,7229,34,36,868
765699,3226648,3310540,3229283,3311203,1342,266,3610,-3224,512,6718,1311,6315,34,36,868
766700,3226992,3310856,3229610,3311530,1085,396,3221,-2438,531,6231,1996,6751,35,34,870
767700,3227300,3311196,3229937,3311857,1318,240,2902,-2015,582,5677,2546,5047,35,34,870
768701,3227636,3311484,3230264,3312184,1139,582,2680,-1228,663,4614,1669,7503,35,31,869
769703,3227972,3311772,3230591,3312511,1135,599,2395,-236,780,5909,1231,7473,35,31,869
770704,3228268,3312036,3230918,3312838,1400,777,2063,531,868,6777,2092,5818,45,42,869
771705,3228580,3312304,3231245,3313165,1307,778,1696,1106,946,5299,1693,6124,45,42,869
772705,3228856,3312500,3231572,3313492,1554,1285,1215,1937,1164,3324,1742,7320,41,24,869
773707,3229204,3312736,3231899,3313819,1095,1075,702,2733,1358,3157,3545,6206,41,24,869
774707,3229492,3312904,3232226,3314146,1487,1570,222,2999,1370,2863,4624,4066,33,20,866
775708,3229832,3313112,3232553,3314473,1156,1373,-279,2896,1390,1160,3465,4018,33,20,866
776709,3230164,3313316,3232880,3314800,1204,1452,-738,2831,1515,704,2097,4679,49,21,866
777710,3230468,3313500,3233207,3315127,1389,1639,-1146,2827,1651,1519,2199,3913,49,21,866
778712,3230796,3313708,3233534,3315454,1239,1542,-1511,2788,1658,1962,2751,3372,42,28,863
779712,3231128,3313896,3233861,3315781,1212,1728,-1770,2617,1824,23,2632,4389,42,28,863
780713,3231468,3314120,3234188,3316108,1156,1548,-1863,2414,2014,-1704,2858,4560,45,21,859
781715,3231776,3314340,3234515,3316435,1364,1620,-1858,2042,2060,-3895,741,5289,45,21,859
782716,3232132,3314544,3234842,3316762,1051,1774,-1787,1273,2114,-6762,-93,5391,41,30,860
783717,3232412,3314788,3235169,3317089,1547,1561,-1609,479,2078,-6234,-494,5845,41,30,860
784717,3232804,3315024,3235496,3317416,819,1651,-1364,-151,2034,-4998,-1118,6424,38,37,858
785719,3233124,3315280,3235823,3317743,1272,1557,-1053,-518,2044,-2004,-1312,7283,38,37,858
786720,3233504,3315504,3236150,3318070,873,1802,-694,-596,2068,942,-1348,7439,50,37,859
787721,3233916,3315760,3236477,3318397,636,1633,-304,-411,2121,2554,-2150,8079,50,37,859
788721,3234304,3316040,3236804,3318724,759,1505,55,-171,2145,2559,-2279,8633,48,34,861
789723,3234716,3316256,3237131,3319051,573,1954,258,-30,2180,791,-1161,7270,48,34,861
790723,3235108,3316476,3237458,3319378,669,1976,279,-79,2152,255,-67,6454,44,23,864
791725,3235532,3316744,3237785,3319705,427,1702,235,-142,2095,-307,86,6532,44,23,864
792725,3235964,3316992,3238112,3320032,330,1861,268,-37,2113,897,-679,5862,59,26,862
793727,3236348,3317208,3238439,3320359,605,2110,410,363,2187,3112,-1136,6156,59,26,862
794728,3236820,3317468,3238766,3320686,-8,1865,602,965,2232,4277,-1516,5826,46,32,865
795728,3237220,3317716,3239093,3321013,410,1974,810,1658,2181,5242,-1474,5744,46,32,865
796729,3237612,3317964,3239420,3321340,431,2009,998,2369,2064,5596,-976,5057,43,24,861
797730,3237968,3318212,3239747,3321667,643,2044,1094,3058,1916,5637,-245,5027,43,24,861
798731,3238288,3318492,3240074,3321994,871,1864,1099,3601,1821,4997,118,4973,50,28,861
799733,3238776,3318800,3240401,3322321,-249,1698,1019,4146,1774,4050,449,3655,50,28,861
800733,3239088,3319084,3240728,3322648,857,1867,959,4738,1730,4028,391,2767,54,40,861
801734,3239532,3319376,3241055,3322975,-19,1832,905,5252,1762,4028,-8,2643,54,40,861
802735,3239872,3319668,3241382,3323302,625,1847,843,5751,1774,2944,410,1912,54,28,865
803736,3240296,3319940,3241709,3323629,57,1997,750,6103,1801,2228,784,1715,54,28,865
804737,3240700,3320244,3242036,3323956,149,1808,661,6492,1774,1868,1307,1886,39,29,865
805738,3241064,3320544,3242363,3324283,382,1845,588,6624,1740,1189,1009,1326,39,29,865
806739,3241320,3320864,3242690,3324610,1089,1723,505,6603,1659,563,320,1929,47,34,862
807740,3241736,3321212,3243017,3324937,49,1538,402,6343,1590,-2,156,1476,47,34,862
808741,3242044,3321556,3243344,3325264,733,1556,292,6063,1487,-1867,613,2435,39,48,864
809742,3242308,3321896,3243671,3325591,1035,1575,176,5533,1363,-3338,609,2107,39,48,864
810752,3242724,3322264,3244032,3325952,61,1397,16,4943,1277,-4112,578,2852,40,40,868
811744,3242972,3322556,3244359,3326279,1146,1888,-113,4524,1198,-4229,182,3021,40,40,868
812745,3243284,3322940,3244686,3326606,753,1288,-229,3977,1161,-4090,753,2453,44,42,862
813746,3243544,3323316,3245013,3326933,1107,1316,-378,3451,1122,-4648,1575,4666,44,42,862
814748,3243844,3323684,3245340,3327260,869,1348,-480,2937,1000,-5245,696,3782,46,52,860
815749,3244136,3324032,3245667,3327587,934,1464,-564,2087,797,-4439,-944,2741,46,52,860
816750,3244404,3324452,3245994,3327914,1110,973,-598,1035,542,-5203,-777,3129,39,43,864
817751,3244672,3324840,3246321,3328241,1136,1146,-571,-7,346,-6209,-949,3834,39,43,864
818752,3244884,3325188,3246648,3328568,1537,1387,-523,-851,235,-6261,-1337,4719,41,41,865
819753,3245132,3325568,3246975,3328895,1346,1165,-398,-1553,150,-5393,-1408,4728,41,41,865
820753,3245364,3325912,3247302,3329222,1488,1382,-7,-2024,-39,-2126,-2726,8078,27,48,865
821754,3245604,3326276,3247629,3329549,1477,1241,275,-2360,-342,-906,-1867,5782,27,48,865
822756,3245836,3326572,3247956,3329876,1569,1679,560,-2229,-717,2238,-1732,9209,36,48,864
823757,3246028,3326884,3248283,3330203,1878,1586,852,-2015,-996,935,-2327,9160,36,48,864
824757,3246184,3327188,3248610,3330530,2179,1646,1016,-2253,-1143,-3046,-761,4610,19,46,861
825758,3246360,3327512,3248937,3330857,2120,1522,1113,-2873,-1186,-3932,-1461,2820,19,46,861
826760,3246556,3327848,3249264,3331184,2053,1444,1165,-3475,-1171,-2356,-2974,3643,35,32,856
827761,3246752,3328188,3249591,3331511,2110,1413,1218,-3915,-1320,-1097,-636,2956,35,32,856
828762,3246992,3328552,3249918,3331838,1873,1247,1328,-4278,-1552,-2282,293,2597,34,34,852
829762,3247208,3328880,3250245,3332165,2072,1471,1433,-4715,-1725,-2645,105,2328,34,34,852
830764,3247456,3329216,3250572,3332492,1907,1417,1401,-5173,-1737,-3285,-156,750,29,49,855
831764,3247704,3329580,3250899,3332819,1942,1226,1304,-5520,-1742,-2545,312,934,29,49,855
832766,3247988,3329928,3251226,3333146,1735,1317,1263,-5734,-1831,-1558,844,1881,38,36,855
833767,3248248,3330284,3251553,3333473,1915,1254,1273,-5880,-1900,-1325,238,2160,38,36,855
834768,3248520,3330640,3251880,3333800,1864,1242,1255,-5924,-1913,-517,100,2619,37,37,858
835769,3248828,3331052,3252207,3334127,1647,855,1217,-5889,-1998,1161,1153,2717,37,37,858
836770,3249064,3331388,3252534,3334454,2137,1326,1190,-5896,-2146,1553,1186,2147,31,51,858
837771,3249360,3331740,3252861,3334781,1776,1215,1167,-6016,-2279,651,438,1779,31,51,858
838772,3249660,3332180,3253188,3335108,1763,615,1144,-6186,-2312,-625,-54,2125,43,49,863
839773,3249968,3332608,3253515,3335435,1722,646,1150,-6331,-2310,-844,128,2003,43,49,863
840773,3250284,3333072,3253842,3335762,1677,361,1146,-6431,-2395,-332,51,3014,43,46,860
841774,3250636,3333540,3254169,3336089,1441,274,1117,-6503,-2499,216,-101,3149,43,46,860
842775,3251016,3334024,3254496,3336416,1243,105,1119,-6425,-2617,1360,696,4810,38,48,864
843776,3251352,3334436,3254823,3336743,1514,517,1158,-6053,-2766,3095,540,6482,38,48,864
844777,3251732,3334872,3255150,3337070,1216,319,1171,-5661,-2966,3856,1120,5818,42,58,867
845778,3252128,3335308,3255477,3337397,1085,272,1190,-5305,-3164,4324,1768,6087,42,58,867
846779,3252504,3335732,3255804,3337724,1189,304,1214,-4981,-3329,4763,990,5950,48,57,867
847780,3252864,3336144,3256131,3338051,1274,342,1214,-4672,-3459,3631,766,5789,48,57,867
848782,3253252,3336604,3256458,3338378,1072,-17,1187,-4546,-3516,1768,1251,4938,57,52,870
849783,3253672,3336996,3256785,3338705,832,380,1144,-4544,-3548,652,1395,4703,57,52,870
850784,3254040,3337404,3257112,3339032,1139,244,1126,-4599,-3634,204,1074,4070,48,48,868
851785,3254416,3337828,3257439,3339359,1067,101,1107,-4764,-3721,-1091,891,3262,48,48,868
852786,3254748,3338304,3257766,3339686,1340,-289,896,-5165,-3752,-2925,2215,2288,39,47,872
853787,3255084,3338772,3258093,3340013,1311,-301,646,-5445,-3689,-1767,2424,3149,39,47,872
854788,3255388,3339216,3258420,3340340,1521,-203,569,-5592,-3681,-724,1256,2887,47,52,871
855789,3255672,3339612,3258747,3340667,1666,67,506,-5947,-3715,-2400,1438,699,47,52,871
856789,3255968,3340000,3259074,3340994,1604,90,455,-6518,-3705,-2498,1910,-56,43,49,868
857790,3256260,3340344,3259401,3341321,1645,358,469,-7036,-3853,-3502,2655,-338,43,49,868
858791,3256544,3340632,3259728,3341648,1714,725,462,-7381,-3936,-3343,1368,772,38,43,867
859792,3256816,3341004,3260055,3341975,1813,180,474,-7498,-3859,-1061,706,340,38,43,867
860800,3257104,3341340,3260416,3342336,1745,416,452,-7409,-3796,1041,818,325,37,53,866
861794,3257368,3341680,3260743,3342663,1923,386,289,-6966,-3743,3221,474,3880,37,53,866
862795,3257620,3341996,3261070,3342990,2031,541,234,-6462,-3573,4318,-919,4818,30,50,864
863796,3257868,3342312,3261397,3343317,2090,546,137,-5808,-3370,4546,-1271,3865,30,50,864
864797,3258168,3342576,3261724,3343644,1777,899,-101,-5185,-3201,4494,895,5013,29,38,863
865798,3258424,3342816,3262051,3343971,2083,1087,-397,-4521,-3021,3974,1036,4557,29,38,863
866799,3258696,3343084,3262378,3344298,2008,938,-739,-3896,-2935,4129,1070,3839,38,25,861
867801,3258960,3343332,3262705,3344625,2085,1098,-1086,-3338,-2995,4480,1626,3485,38,25,861
868801,3259252,3343556,3263032,3344952,1926,1293,-1521,-2881,-3056,4685,2311,1650,37,31,857
869802,3259576,3343760,3263359,3345279,1727,1472,-2035,-2231,-3016,3953,2157,2911,37,31,857
870803,3259880,3343976,3263686,3345606,1863,1446,-2602,-1499,-2947,4968,2850,3567,33,32,857
871804,3260196,3344108,3264013,3345933,1793,2057,-3137,-624,-2804,5673,2433,4298,33,32,857
872805,3260520,3344276,3264340,3346260,1744,1901,-3579,465,-2627,7224,741,6423,47,15,856
873806,3260836,3344364,3264667,3346587,1799,2506,-3873,1545,-2487,8300,617,7179,47,15,856
874807,3261144,3344464,3264994,3346914,1857,2531,-4032,2494,-2427,6784,170,8046,40,26,851
875808,3261428,3344584,3265321,3347241,2026,2497,-4078,3257,-2410,4870,-685,8196,40,26,851
876809,3261760,3344716,3265648,3347568,1724,2508,-4050,3754,-2340,4362,-937,6603,49,20,847
877810,3262120,3344908,3265975,3347895,1535,2192,-3920,4197,-2240,4164,-1756,7602,49,20,847
878811,3262492,3345076,3266302,3348222,1440,2412,-3758,4578,-2108,2831,-2363,6415,39,30,845
879813,3262816,3345268,3266629,3348549,1741,2321,-3651,4986,-1943,2600,-2382,6858,39,30,845
880814,3263192,3345484,3266956,3348876,1395,2220,-3616,5505,-1846,3187,-1616,7302,39,19,852
881815,3263528,3345700,3267283,3349203,1641,2269,-3537,5863,-1781,2840,-813,6435,39,19,852
882816,3263920,3345916,3267610,3349530,1262,2318,-3363,5963,-1697,1384,-1087,6557,48,31,849
883817,3264188,3346172,3267937,3349857,2063,2099,-3117,5834,-1609,-482,-1795,7728,48,31,849
884817,3264580,3346424,3268264,3350184,1260,2157,-2811,5458,-1491,-2089,-2044,7102,55,38,852
885818,3264960,3346676,3268591,3350511,1312,2191,-2431,4870,-1389,-2556,-1453,6497,55,38,852
886819,3265320,3346936,3268918,3350838,1423,2170,-2040,4312,-1381,-3367,-1166,8085,50,27,850
887820,3265680,3347216,3269245,3351165,1408,2066,-1641,3682,-1288,-4320,-2571,7781,50,27,850
888821,3266104,3347500,3269572,3351492,966,2060,-1238,3117,-1135,-3500,-2516,8367,46,30,856
889822,3266556,3347820,3269899,3351819,736,1838,-832,2630,-980,-3149,-2056,8712,46,30,856
890823,3266956,3348132,3270226,3352146,1029,1894,-410,2208,-798,-3519,-2679,8810,59,45,856
891824,3267372,3348432,3270553,3352473,889,1981,0,1822,-626,-2806,-2231,8605,59,45,856
892825,3267792,3348704,3270880,3352800,824,2181,385,1490,-426,-1904,-2055,8081,56,34,862
893826,3268256,3349032,3271207,3353127,488,1830,768,1309,-237,-1223,-2058,8603,56,34,862
894827,3268724,3349316,3271534,3353454,401,2124,1079,1261,-118,-319,-1658,8130,50,44,858
895828,3269184,3349640,3271861,3353781,393,1875,1311,1313,-41,229,-1423,7946,50,44,858
896830,3269736,3349980,3272188,3354108,-281,1770,1485,1501,76,1627,-1022,7071,52,34,864
897831,3270268,3350332,3272515,3354435,-246,1684,1609,1854,163,2977,-206,7589,52,34,864
898831,3270736,3350656,3272842,3354762,92,1861,1658,2316,176,3009,145,7088,63,39,864
899832,3271148,3350976,3273169,3355089,405,1889,1614,2821,252,3300,383,5704,63,39,864
900833,3271512,3351340,3273496,3355416,688,1598,1527,3348,327,4572,556,4672,52,47,866
901834,3271804,3351684,3273823,3355743,1154,1715,1403,3892,268,4656,1369,4579,52,47,866
902835,3272236,3352040,3274150,3356070,234,1627,1251,4424,141,4462,1699,3694,63,34,864
903836,3272656,3352364,3274477,3356397,268,1829,1076,4894,76,3754,1341,3280,63,34,864
904838,3273112,3352704,3274804,3356724,-14,1723,915,5238,12,3596,1492,2991,66,35,861
905838,3273548,3353056,3275131,3357051,63,1637,803,5505,-78,2402,1914,3816,66,35,861
906840,3274008,3353408,3275458,3357378,-145,1626,728,5601,-106,1262,1397,3832,49,45,865
907840,3274468,3353736,3275785,3357705,-204,1776,698,5629,-38,446,782,3878,49,45,865
908841,3274860,3354080,3276112,3358032,193,1668,716,5575,26,469,747,2255,52,42,867
909842,3275168,3354432,3276439,3358359,726,1607,788,5462,-9,566,399,2416,52,42,867
910850,3275608,3354756,3276800,3358720,-134,1798,889,5312,-110,705,-635,2646,47,42,865
911844,3276036,3355048,3277127,3359047,-103,2015,996,5234,-185,351,-1180,2554,47,42,865
912845,3276424,3355400,3277454,3359374,120,1629,1176,5168,-213,325,-743,3201,51,47,865
913847,3276836,3355764,3277781,3359701,-67,1538,1393,5174,-275,697,-132,2345,51,47,865
914848,3277304,3356136,3278108,3360028,-479,1468,1635,5223,-409,2143,-528,2489,50,38,864
915849,3277696,3356520,3278435,3360355,-33,1368,1880,5537,-619,3280,-1195,2221,50,38,864
916849,3277936,3356892,3278762,3360682,955,1423,2110,6000,-689,3150,-943,1655,46,48,866
917851,3278184,3357320,3279089,3361009,940,1029,2359,6212,-684,2820,-217,-1053,46,48,866
918851,3278384,3357764,3279416,3361336,1296,877,2436,6097,-710,322,-604,-73,35,56,869
919852,3278704,3358156,3279743,3361663,549,1174,2239,5632,-669,-3948,503,-2462,35,56,869
920853,3279040,3358624,3280070,3361990,445,637,1958,4770,-620,-6009,2001,-2255,41,49,867
921854,3279344,3359112,3280397,3362317,655,441,1669,3643,-625,-9359,2730,-160,41,49,867
922856,3279580,3359548,3280724,3362644,1120,718,1511,2407,-718,-9144,1024,1042,36,48,868
923856,3279864,3359976,3281051,3362971,839,724,1544,1112,-875,-8920,-1079,3657,36,48,868
924857,3280076,3360384,3281378,3363298,1340,813,1648,-221,-886,-9876,-1735,2793,33,44,872
925858,3280264,3360844,3281705,3363625,1551,430,1701,-1434,-795,-8828,-1197,3084,33,44,872
926859,3280452,3361288,3282032,3363952,1612,479,1712,-2330,-719,-6656,-780,3205,25,40,870
927860,3280644,3361740,3282359,3364279,1646,374,1697,-3054,-746,-5886,-177,3014,25,40,870
928862,3280836,3362192,3282686,3364606,1705,319,1626,-3699,-831,-5973,478,2576,20,52,866
929862,3281012,3362628,3283013,3364933,1872,371,1435,-4285,-899,-5588,1098,947,20,52,866
930863,3281232,3363020,3283340,3365260,1644,618,1127,-5032,-1003,-5665,1922,-748,23,43,864
931864,3281492,3363468,3283667,3365587,1423,215,791,-5914,-1049,-7172,1521,-1469,23,43,864
932865,3281712,3363908,3283994,3365914,1720,215,500,-6974,-1058,-8561,989,-868,37,46,863
933866,3281972,3364348,3284321,3366241,1500,165,314,-8104,-1099,-8911,597,-767,37,46,863
934867,3282216,3364792,3284648,3366568,1636,89,255,-9117,-1082,-7737,-264,-239,24,58,867
935868,3282500,3365264,3284975,3366895,1405,-150,297,-9845,-1055,-5598,-1003,542,24,58,867
936869,3282792,3365688,3285302,3367222,1371,108,339,-10205,-991,-3430,-1393,492,42,44,867
937870,3283100,3366052,3285629,3367549,1280,466,360,-10332,-919,-2171,-987,861,42,44,867
938871,3283408,3366428,3285956,3367876,1288,370,346,-10396,-839,-1039,-910,296,38,49,866
939872,3283752,3366848,3286283,3368203,1056,54,368,-10352,-814,438,-135,1702,38,49,866
940873,3284088,3367252,3286610,3368530,1102,120,479,-10394,-959,861,1376,2024,42,52,868
941874,3284432,3367620,3286937,3368857,1044,327,764,-10262,-1005,1006,-363,3081,42,52,868
942875,3284772,3367964,3287264,3369184,1064,470,1218,-9836,-952,3562,-1907,6611,50,46,871
943876,3285120,3368312,3287591,3369511,1004,435,1716,-9165,-865,3482,-2847,7436,50,46,871
944877,3285464,3368616,3287918,3369838,1022,721,2237,-8449,-831,4766,-2669,7522,38,44,871
945879,3285804,3368932,3288245,3370165,1041,650,2607,-7862,-1021,6678,-217,6773,38,44,871
946880,3286188,3369264,3288572,3370492,741,548,2721,-6976,-1229,6380,738,7602,38,39,870
947881,3286512,3369588,3288899,3370819,1117,599,2552,-6194,-1262,5509,1445,4960,38,39,870
948882,3286800,3369916,3289226,3371146,1360,574,2255,-5435,-1211,4230,2098,4726,37,43,869
949883,3287092,3370256,3289553,3371473,1350,493,2015,-4944,-1177,3018,2364,3939,37,43,869
950884,3287404,3370656,3289880,3371800,1232,86,1833,-4672,-1185,1120,2874,3743,40,49,869
951885,3287672,3371068,3290207,3372127,1533,-26,1751,-4488,-1161,-117,2363,4482,40,49,869
952885,3287956,3371468,3290534,3372454,1451,17,1719,-4522,-1152,-899,2140,3874,37,33,867
953887,3288224,3371820,3290861,3372781,1577,306,1592,-4685,-1138,-1395,2235,3181,37,33,867
954888,3288480,3372212,3291188,3373108,1684,27,1320,-4916,-1096,-1500,2711,2950,27,50,867
955889,3288744,3372552,3291515,3373435,1661,347,939,-4983,-975,-1409,3029,2739,27,50,867
956890,3289024,3372892,3291842,3373762,1582,341,529,-4925,-759,-2947,2562,3244,29,39,867
957891,3289300,3373144,3292169,3374089,1629,924,196,-4968,-612,-5084,1755,1959,29,39,867
958892,3289556,3373476,3292496,3374416,1786,422,-33,-5494,-506,-4147,1932,14,30,46,866
959893,3289840,3373844,3292823,3374743,1630,179,-168,-5934,-419,-2151,1694,1472,30,46,866
960901,3290144,3374236,3293184,3375104,1530,15,-248,-5979,-420,-993,509,2793,41,53,861
961896,3290380,3374640,3293511,3375431,1995,-94,-312,-5994,-318,-1227,1045,2116,41,53,861
962896,3290652,3374972,3293838,3375758,1795,354,-296,-5966,-234,464,372,3196,26,39,866
963897,3290896,3375344,3294165,3376085,2006,84,-276,-5958,-256,1228,-27,4230,26,39,866
964898,3291160,3375676,3294492,3376412,1909,333,-264,-5535,-226,2945,20,6768,34,47,864
965899,3291444,3376008,3294819,3376739,1803,331,-203,-5053,-169,4448,760,6460,34,47,864
966900,3291788,3376324,3295146,3377066,1420,436,-100,-4626,-197,4492,626,6237,30,48,863
967901,3292068,3376636,3295473,3377393,1841,467,63,-4086,-272,4954,-509,6746,30,48,863
968902,3292408,3376980,3295800,3377720,1460,260,320,-3480,-384,4575,-1445,5923,40,38,864
969903,3292752,3377248,3296127,3378047,1428,761,559,-2862,-340,3348,-2285,6444,40,38,864
970904,3293112,3377512,3296454,3378374,1313,813,805,-2378,-191,3415,-2400,5990,36,42,864
971905,3293460,3377748,3296781,3378701,1379,1028,996,-1958,-35,2733,-2344,5807,36,42,864
972906,3293772,3377964,3297108,3379028,1611,1202,1071,-1496,167,2648,-2343,5941,41,28,865
973907,3294120,3378196,3297435,3379355,1376,1144,1071,-1180,348,2161,-1492,5003,41,28,865
974908,3294448,3378404,3297762,3379682,1502,1346,1036,-1108,475,1394,-600,4788,35,32,864
975908,3294776,3378596,3298089,3380009,1501,1505,1028,-1089,523,1936,331,4907,35,32,864
976909,3295104,3378792,3298416,3380336,1501,1538,1073,-1004,573,2571,-573,5896,45,19,863
977910,3295484,3379008,3298743,3380663,1153,1462,1148,-740,644,2743,-1733,6241,45,19,863
978912,3295880,3379196,3299070,3380990,1022,1698,1260,-431,752,3076,-1970,5799,41,28,859
979913,3296272,3379408,3299397,3381317,1019,1598,1405,37,874,2952,-1830,6747,41,28,859
980914,3296676,3379632,3299724,3381644,910,1569,1518,456,990,2240,-1391,6691,56,25,862
981915,3297044,3379836,3300051,3381971,1117,1748,1611,660,1085,1286,-1243,6226,56,25,862
982916,3297436,3380036,3300378,3382298,938,1829,1657,721,1214,787,-816,5974,57,34,861
983917,3297804,3380304,3300705,3382625,1070,1429,1624,794,1295,1032,-315,6048,57,34,861
984918,3298200,3380544,3301032,3382952,865,1643,1525,835,1381,530,-72,5492,46,30,860
985918,3298608,3380792,3301359,3383279,754,1627,1402,881,1482,452,-49,4936,46,30,860
986920,3299044,3381032,3301686,3383606,532,1716,1265,939,1539,1079,599,4881,57,26,864
987921,3299448,3381284,3302013,3383933,698,1674,1136,1000,1616,961,814,4602,57,26,864
988922,3299844,3381548,3302340,3384260,717,1626,1030,1169,1729,538,382,4966,47,40,864
989923,3300280,3381792,3302667,3384587,419,1788,987,1288,1833,665,211,5126,47,40,864
990924,3300684,3382036,3302994,3384914,586,1824,876,1346,1891,207,576,3810,58,36,864
991925,3301132,3382352,3303321,3385241,257,1379,712,1439,1954,310,646,4497,58,36,864
992926,3301556,3382620,3303648,3385568,365,1705,520,1622,2058,801,51,4727,59,41,864
993927,3301940,3382904,3303975,3385895,591,1624,326,1887,2161,1243,307,3204,59,41,864
994928,3302408,3383160,3304302,3386222,4,1831,137,2255,2233,2698,964,4509,58,30,868
995929,3302776,3383456,3304629,3386549,611,1595,-50,2717,2279,3048,1400,4404,58,30,868
996930,3303152,3383744,3304956,3386876,539,1662,-209,3221,2291,2871,935,3074,43,31,865
997931,3303568,3384028,3305283,3387203,250,1706,-364,3689,2277,3254,526,4167,43,31,865
998932,3303996,3384344,3305610,3387530,131,1511,-479,4155,2288,3454,371,3587,47,35,865
999933,3304376,3384648,3305937,3387857,407,1596,-590,4624,2313,3491,758,3378,47,35,865
